build	date	time	subject	group	blocknum	blockcode	trialnum	trialcode	response	correct	latency	stimulusnumber1	stimulusitem1	stimulusnumber2	stimulusitem2	stimulusnumber3	stimulusitem3	stimulusnumber4	stimulusitem4	stimulusnumber5	stimulusitem5	stimulusnumber6	stimulusitem6	stimulusnumber7	stimulusitem7	stimulusnumber8	stimulusitem8	stimulusnumber9	stimulusitem9	stimulusnumber10	stimulusitem10	stimulusnumber11	stimulusitem11	stimulusnumber12	stimulusitem12
4.0.8.0	030117	15:13:24	3	1	1	3PP3PPTaskInstructions.M	1	instruct1.M	57	1	1255	1	PERSPECTIVES TASK     Thank you for your participation thusfar.    You will now complete a series of tasks that require you to view a three dimensional (3D) space from different perspectives.	1	Please press space bar to continue.	1	blankav.png	0	0	0	0	0	0	0	0	0	0	0	0	0	0	0	0	0	0
4.0.8.0	030117	15:13:24	3	1	1	3PP3PPTaskInstructions.M	2	instruct1.M	57	1	958	2	On each trial, you will view a 3D environment with the avatars representing James (low status) and Eric (high status).    Opposite the two avatars on the far wall of the 3D space, you will see a total of four dots.  You will also see some visual barriers perpendicular to the back wall.	2	Please press space bar to see an example of this 3D space.	2	blankav.png	0	0	0	0	0	0	0	0	0	0	0	0	0	0	0	0	0	0
4.0.8.0	030117	15:13:24	3	1	1	3PP3PPTaskInstructions.M	3	instruct1.M	3	1	2640	3	3D SPACE EXAMPLE, PART 1:    Note that the avatar on the left can only see the two dots in the middle; the dots on the far left and far right are obscured by the barriers.  Remember that avatars can only ever see dots in the direction that they are facing.	3	How many dots can the avatar on the right see?  Press 1 or 2.	3	example-m.jpg	0	0	0	0	0	0	0	0	0	0	0	0	0	0	0	0	0	0
4.0.8.0	030117	15:13:24	3	1	1	3PP3PPTaskInstructions.M	4	instruct1.M	57	1	2770	4	Let's get some more practice taking perspectives in this 3D environment.    In the next few slides, we will present you with just one avatar within the 3D environment. All you need to do is indicate how many dots that avatar can see by pressing the 1 or 2 key on your keyboard.	4	Please press space bar to continue.	4	blankav.png	0	0	0	0	0	0	0	0	0	0	0	0	0	0	0	0	0	0
4.0.8.0	030117	15:13:24	3	1	1	3PP3PPTaskInstructions.M	5	instruct1.M	57	1	1064	5	Remember: Even though you personally can see all the dots, the avatars can see dots on only one side of any given barrier--including the barrier on their own side.	5	Please press space bar to continue.	5	blankav.png	0	0	0	0	0	0	0	0	0	0	0	0	0	0	0	0	0	0
4.0.8.0	030117	15:13:24	3	1	1	3PP3PPTaskInstructions.M	6	introtask.HS.M	2	1	749	1	+   +	1	+   +	1	+ +	1	+ +	1	+	8	3578.jpg	8	blankav.png	8	lfrblue-m.png	0	0	0	0	0	0	0	0
4.0.8.0	030117	15:13:24	3	1	1	3PP3PPTaskInstructions.M	7	introtask.LS.M	2	1	450	1	+   +	1	+   +	1	+ +	1	+ +	1	+	10	3589.jpg	10	blankav.png	10	lfrgreen-m.png	0	0	0	0	0	0	0	0
4.0.8.0	030117	15:13:24	3	1	1	3PP3PPTaskInstructions.M	8	introtask.HS.M	2	1	386	1	+   +	1	+   +	1	+ +	1	+ +	1	+	1	1357.jpg	1	rflblue-m.png	1	blankav.png	0	0	0	0	0	0	0	0
4.0.8.0	030117	15:13:24	3	1	1	3PP3PPTaskInstructions.M	9	introtask.HS.M	3	1	353	1	+   +	1	+   +	1	+ +	1	+ +	1	+	6	3567.jpg	6	blankav.png	6	lfrblue-m.png	0	0	0	0	0	0	0	0
4.0.8.0	030117	15:13:24	3	1	1	3PP3PPTaskInstructions.M	10	introtask.LS.M	2	1	565	1	+   +	1	+   +	1	+ +	1	+ +	1	+	8	3578.jpg	8	blankav.png	8	lfrgreen-m.png	0	0	0	0	0	0	0	0
4.0.8.0	030117	15:13:24	3	1	1	3PP3PPTaskInstructions.M	11	introtask.LS.M	3	1	456	1	+   +	1	+   +	1	+ +	1	+ +	1	+	4	2457.jpg	4	blankav.png	4	lfrgreen-m.png	0	0	0	0	0	0	0	0
4.0.8.0	030117	15:13:24	3	1	1	3PP3PPTaskInstructions.M	12	introtask.LS.M	2	1	495	1	+   +	1	+   +	1	+ +	1	+ +	1	+	3	2358.jpg	3	rflgreen-m.png	3	blankav.png	0	0	0	0	0	0	0	0
4.0.8.0	030117	15:13:24	3	1	1	3PP3PPTaskInstructions.M	13	introtask.LS.M	3	1	371	1	+   +	1	+   +	1	+ +	1	+ +	1	+	7	3568.jpg	7	rflgreen-m.png	7	blankav.png	0	0	0	0	0	0	0	0
4.0.8.0	030117	15:13:24	3	1	1	3PP3PPTaskInstructions.M	14	introtask.LS.M	3	1	356	1	+   +	1	+   +	1	+ +	1	+ +	1	+	6	3567.jpg	6	blankav.png	6	lfrgreen-m.png	0	0	0	0	0	0	0	0
4.0.8.0	030117	15:13:24	3	1	1	3PP3PPTaskInstructions.M	15	introtask.HS.M	3	1	465	1	+   +	1	+   +	1	+ +	1	+ +	1	+	7	3568.jpg	7	rflblue-m.png	7	blankav.png	0	0	0	0	0	0	0	0
4.0.8.0	030117	15:13:24	3	1	1	3PP3PPTaskInstructions.M	16	introtask.HS.M	3	1	426	1	+   +	1	+   +	1	+ +	1	+ +	1	+	5	3457.jpg	5	rflblue-m.png	5	blankav.png	0	0	0	0	0	0	0	0
4.0.8.0	030117	15:13:24	3	1	1	3PP3PPTaskInstructions.M	17	introtask.HS.M	3	1	311	1	+   +	1	+   +	1	+ +	1	+ +	1	+	4	2457.jpg	4	blankav.png	4	lfrblue-m.png	0	0	0	0	0	0	0	0
4.0.8.0	030117	15:13:24	3	1	1	3PP3PPTaskInstructions.M	18	introtask.LS.M	2	1	379	1	+   +	1	+   +	1	+ +	1	+ +	1	+	1	1357.jpg	1	rflgreen-m.png	1	blankav.png	0	0	0	0	0	0	0	0
4.0.8.0	030117	15:13:24	3	1	1	3PP3PPTaskInstructions.M	19	introtask.HS.M	2	1	368	1	+   +	1	+   +	1	+ +	1	+ +	1	+	9	3579.jpg	9	rflblue-m.png	9	blankav.png	0	0	0	0	0	0	0	0
4.0.8.0	030117	15:13:24	3	1	1	3PP3PPTaskInstructions.M	20	introtask.LS.M	2	1	441	1	+   +	1	+   +	1	+ +	1	+ +	1	+	2	2357.jpg	2	blankav.png	2	lfrgreen-m.png	0	0	0	0	0	0	0	0
4.0.8.0	030117	15:13:24	3	1	1	3PP3PPTaskInstructions.M	21	introtask.LS.M	3	1	377	1	+   +	1	+   +	1	+ +	1	+ +	1	+	5	3457.jpg	5	rflgreen-m.png	5	blankav.png	0	0	0	0	0	0	0	0
4.0.8.0	030117	15:13:24	3	1	1	3PP3PPTaskInstructions.M	22	introtask.HS.M	2	1	418	1	+   +	1	+   +	1	+ +	1	+ +	1	+	3	2358.jpg	3	rflblue-m.png	3	blankav.png	0	0	0	0	0	0	0	0
4.0.8.0	030117	15:13:24	3	1	1	3PP3PPTaskInstructions.M	23	introtask.HS.M	2	1	335	1	+   +	1	+   +	1	+ +	1	+ +	1	+	10	3589.jpg	10	blankav.png	10	lfrblue-m.png	0	0	0	0	0	0	0	0
4.0.8.0	030117	15:13:24	3	1	1	3PP3PPTaskInstructions.M	24	introtask.HS.M	2	1	416	1	+   +	1	+   +	1	+ +	1	+ +	1	+	2	2357.jpg	2	blankav.png	2	lfrblue-m.png	0	0	0	0	0	0	0	0
4.0.8.0	030117	15:13:24	3	1	1	3PP3PPTaskInstructions.M	25	introtask.LS.M	2	1	414	1	+   +	1	+   +	1	+ +	1	+ +	1	+	9	3579.jpg	9	rflgreen-m.png	9	blankav.png	0	0	0	0	0	0	0	0
4.0.8.0	030117	15:13:24	3	1	1	3PP3PPTaskInstructions.M	26	instruct2	57	1	1246	1	Now that you're familiar with the 3D environment, let's continue to a slightly more difficult task.    Before viewing the 3D environment on each trial, you will see a brief prompt. The prompt will indicate which target's perspective you will be taking in that trial.    Your task is to determine how many dots the prompted avatar can see.	1	Please press space bar to continue.	0	0	0	0	0	0	0	0	0	0	0	0	0	0	0	0	0	0	0	0
4.0.8.0	030117	15:13:24	3	1	1	3PP3PPTaskInstructions.M	27	instruct2	57	1	1806	2	TRIAL EXAMPLE:    The prompt says you should take James's (green avatar, low status) perspective. In the 3D space that follows, James's avatar sees exactly two dots. In this case, you would respond by pressing the 2 key.    If the prompted perspective sees just one dot, then you would press the 1 key instead.	2	Please press space bar to continue.	0	0	0	0	0	0	0	0	0	0	0	0	0	0	0	0	0	0	0	0
4.0.8.0	030117	15:13:24	3	1	1	3PP3PPTaskInstructions.M	28	instruct2	57	1	1040	3	KEYBOARD USE:    If the prompted avatar sees one dot, press the 1 key.  If the prompted avatar sees two dots, press the 2 key.	3	Please press space bar to continue.	0	0	0	0	0	0	0	0	0	0	0	0	0	0	0	0	0	0	0	0
4.0.8.0	030117	15:13:24	3	1	1	3PP3PPTaskInstructions.M	29	instruct2	2	1	1302	4	FINGER PLACEMENT:     Because the 1 and the 2 keys are so close, we ask that you use your right hand only. Please place your right pointer finger over the 1 key and your right middle finger over the 2 key.    You may find it easier to use the 1 and 2 keys on your keyboard's number pad, if available.	4	Please press the 1 key to continue.	0	0	0	0	0	0	0	0	0	0	0	0	0	0	0	0	0	0	0	0
4.0.8.0	030117	15:13:24	3	1	1	3PP3PPTaskInstructions.M	30	instruct2	3	1	710	5	For the following practice trials, we encourage you complete the trials as quickly and accurately as possible.	5	Please press the 2 key when you are ready to begin.	0	0	0	0	0	0	0	0	0	0	0	0	0	0	0	0	0	0	0	0
4.0.8.0	030117	15:13:24	3	1	2	3PP3PPTaskPractice.M	1	CHS1.M	2	1	1597	1	blank	2	Eric (high status)	2	Eric (high status)	1	+   +	1	+   +	1	+ +	1	+ +	1	+	4	1357.jpg	4	rflblue-m.png	4	lfrgreen-m.png	1	blank
4.0.8.0	030117	15:13:24	3	1	2	3PP3PPTaskPractice.M	2	CHS2.M	3	1	1497	1	blank	2	Eric (high status)	2	Eric (high status)	1	+   +	1	+   +	1	+ +	1	+ +	1	+	4	3568.jpg	4	rflblue-m.png	4	lfrgreen-m.png	1	blank
4.0.8.0	030117	15:13:24	3	1	2	3PP3PPTaskPractice.M	3	IHS1.outward.M	2	1	1434	1	blank	2	Eric (high status)	2	Eric (high status)	1	+   +	1	+   +	1	+ +	1	+ +	1	+	4	3579.jpg	4	lflblue-m.png	4	rfrgreen-m.png	1	blank
4.0.8.0	030117	15:13:24	3	1	2	3PP3PPTaskPractice.M	4	ILS1.parallel.leftin.M	3	0	1769	1	blank	1	James (low status)	1	James (low status)	1	+   +	1	+   +	1	+ +	1	+ +	1	+	2	2457.jpg	2	rflblue-m.png	2	rfrgreen-m.png	1	blank
4.0.8.0	030117	15:13:24	3	1	2	3PP3PPTaskPractice.M	5	CLS1.M	2	1	1497	1	blank	1	James (low status)	1	James (low status)	1	+   +	1	+   +	1	+ +	1	+ +	1	+	6	3579.jpg	6	rflblue-m.png	6	lfrgreen-m.png	1	blank
4.0.8.0	030117	15:13:24	3	1	2	3PP3PPTaskPractice.M	6	ILS2.parallel.leftin.M	3	1	1497	1	blank	1	James (low status)	1	James (low status)	1	+   +	1	+   +	1	+ +	1	+ +	1	+	1	3568.jpg	1	rflgreen-m.png	1	rfrblue-m.png	1	blank
4.0.8.0	030117	15:13:24	3	1	2	3PP3PPTaskPractice.M	7	IHS2.outward.M	3	1	1699	1	blank	2	Eric (high status)	2	Eric (high status)	1	+   +	1	+   +	1	+ +	1	+ +	1	+	3	2357.jpg	3	lflblue-m.png	3	rfrgreen-m.png	1	blank
4.0.8.0	030117	15:13:24	3	1	2	3PP3PPTaskPractice.M	8	ILS2.parallel.leftout.M	3	1	2020	1	blank	1	James (low status)	1	James (low status)	1	+   +	1	+   +	1	+ +	1	+ +	1	+	2	3457.jpg	2	lflblue-m.png	2	lfrgreen-m.png	1	blank
4.0.8.0	030117	15:13:24	3	1	2	3PP3PPTaskPractice.M	9	CHS1.M	2	1	1655	1	blank	2	Eric (high status)	2	Eric (high status)	1	+   +	1	+   +	1	+ +	1	+ +	1	+	6	3579.jpg	6	rflblue-m.png	6	lfrgreen-m.png	1	blank
4.0.8.0	030117	15:13:24	3	1	2	3PP3PPTaskPractice.M	10	IHS2.parallel.leftin.M	3	1	2333	1	blank	2	Eric (high status)	2	Eric (high status)	1	+   +	1	+   +	1	+ +	1	+ +	1	+	2	2457.jpg	2	rflblue-m.png	2	rfrgreen-m.png	1	blank
4.0.8.0	030117	15:13:24	3	1	2	3PP3PPTaskPractice.M	11	ILS1.parallel.leftout.M	2	1	2031	1	blank	1	James (low status)	1	James (low status)	1	+   +	1	+   +	1	+ +	1	+ +	1	+	1	3567.jpg	1	lflgreen-m.png	1	lfrblue-m.png	1	blank
4.0.8.0	030117	15:13:24	3	1	2	3PP3PPTaskPractice.M	12	ILS1.outward.M	2	1	1987	1	blank	1	James (low status)	1	James (low status)	1	+   +	1	+   +	1	+ +	1	+ +	1	+	4	1357.jpg	4	lflblue-m.png	4	rfrgreen-m.png	1	blank
4.0.8.0	030117	15:13:24	3	1	2	3PP3PPTaskPractice.M	13	pracblockfb.M	57	0	1489	1	You got 11 out of 13 trials correct.   Please press space bar to continue.	0	0	0	0	0	0	0	0	0	0	0	0	0	0	0	0	0	0	0	0	0	0
4.0.8.0	030117	15:13:24	3	1	2	3PP3PPTaskPractice.M	14	pracblockpass	57	0	1067	1	Well done.  You're now ready to start the experimental block.   Please press space bar to continue.	0	0	0	0	0	0	0	0	0	0	0	0	0	0	0	0	0	0	0	0	0	0
4.0.8.0	030117	15:13:24	3	1	3	3PP3PPTask.M	1	instruct3	57	1	1118	1	REMINDER:    James is the low-status avatar.  Low status is represented by green.    Eric is the high-status avatar.  High status is represented by blue.	1	Please press space bar to continue.	0	0	0	0	0	0	0	0	0	0	0	0	0	0	0	0	0	0	0	0
4.0.8.0	030117	15:13:24	3	1	3	3PP3PPTask.M	2	instruct3	57	1	826	2	REMINDER:    The 1 key means that the target avatar sees one (1) dot.    The 2 key means that the target avatar sees two (2) dots.	2	Please press space bar to continue.	0	0	0	0	0	0	0	0	0	0	0	0	0	0	0	0	0	0	0	0
4.0.8.0	030117	15:13:24	3	1	3	3PP3PPTask.M	3	instruct3	3	1	900	3	Time to get ready:    Please ensure your fingers are in the correct positions over the 1 and 2 keys on your keyboard.    The first experimental block begins after this screen.  Please remember to respond as QUICKLY and ACCURATELY as possible on all trials.	3	Please press the 2 key when you are ready to begin.	0	0	0	0	0	0	0	0	0	0	0	0	0	0	0	0	0	0	0	0
4.0.8.0	030117	15:13:24	3	1	3	3PP3PPTask.M	4	ILS2.parallel.leftout.M	3	1	2067	1	blank	1	James (low status)	1	James (low status)	1	+   +	1	+   +	1	+ +	1	+ +	1	+	2	3457.jpg	2	lflblue-m.png	2	lfrgreen-m.png	1	blank
4.0.8.0	030117	15:13:24	3	1	3	3PP3PPTask.M	5	IHS1.parallel.leftout.M	2	1	1607	1	blank	2	Eric (high status)	2	Eric (high status)	1	+   +	1	+   +	1	+ +	1	+ +	1	+	1	2358.jpg	1	lflgreen-m.png	1	lfrblue-m.png	1	blank
4.0.8.0	030117	15:13:24	3	1	3	3PP3PPTask.M	6	CLS1.M	2	1	1698	1	blank	1	James (low status)	1	James (low status)	1	+   +	1	+   +	1	+ +	1	+ +	1	+	4	1357.jpg	4	rflblue-m.png	4	lfrgreen-m.png	1	blank
4.0.8.0	030117	15:13:24	3	1	3	3PP3PPTask.M	7	CHS1.M	2	1	1513	1	blank	2	Eric (high status)	2	Eric (high status)	1	+   +	1	+   +	1	+ +	1	+ +	1	+	8	2357.jpg	8	rflblue-m.png	8	lfrgreen-m.png	1	blank
4.0.8.0	030117	15:13:24	3	1	3	3PP3PPTask.M	8	ILS1.parallel.leftin.M	2	1	2923	1	blank	1	James (low status)	1	James (low status)	1	+   +	1	+   +	1	+ +	1	+ +	1	+	1	3578.jpg	1	rflgreen-m.png	1	rfrblue-m.png	1	blank
4.0.8.0	030117	15:13:24	3	1	3	3PP3PPTask.M	9	CHS2.M	3	1	1476	1	blank	2	Eric (high status)	2	Eric (high status)	1	+   +	1	+   +	1	+ +	1	+ +	1	+	5	3567.jpg	5	rflgreen-m.png	5	lfrblue-m.png	1	blank
4.0.8.0	030117	15:13:24	3	1	3	3PP3PPTask.M	10	CHS2.M	3	1	1490	1	blank	2	Eric (high status)	2	Eric (high status)	1	+   +	1	+   +	1	+ +	1	+ +	1	+	1	3457.jpg	1	rflgreen-m.png	1	lfrblue-m.png	1	blank
4.0.8.0	030117	15:13:24	3	1	3	3PP3PPTask.M	11	CHS2.M	3	1	1798	1	blank	2	Eric (high status)	2	Eric (high status)	1	+   +	1	+   +	1	+ +	1	+ +	1	+	6	3567.jpg	6	rflblue-m.png	6	lfrgreen-m.png	1	blank
4.0.8.0	030117	15:13:24	3	1	3	3PP3PPTask.M	12	IHS2.outward.M	3	1	2331	1	blank	2	Eric (high status)	2	Eric (high status)	1	+   +	1	+   +	1	+ +	1	+ +	1	+	2	3579.jpg	2	lflgreen-m.png	2	rfrblue-m.png	1	blank
4.0.8.0	030117	15:13:24	3	1	3	3PP3PPTask.M	13	ILS1.parallel.leftout.M	3	0	2426	1	blank	1	James (low status)	1	James (low status)	1	+   +	1	+   +	1	+ +	1	+ +	1	+	2	2358.jpg	2	lflblue-m.png	2	lfrgreen-m.png	1	blank
4.0.8.0	030117	15:13:24	3	1	3	3PP3PPTask.M	14	ILS1.outward.M	2	1	1543	1	blank	1	James (low status)	1	James (low status)	1	+   +	1	+   +	1	+ +	1	+ +	1	+	2	3579.jpg	2	lflgreen-m.png	2	rfrblue-m.png	1	blank
4.0.8.0	030117	15:13:24	3	1	3	3PP3PPTask.M	15	CLS1.M	2	1	1592	1	blank	1	James (low status)	1	James (low status)	1	+   +	1	+   +	1	+ +	1	+ +	1	+	2	3578.jpg	2	rflblue-m.png	2	lfrgreen-m.png	1	blank
4.0.8.0	030117	15:13:24	3	1	3	3PP3PPTask.M	16	ILS2.parallel.leftout.M	3	1	2009	1	blank	1	James (low status)	1	James (low status)	1	+   +	1	+   +	1	+ +	1	+ +	1	+	1	2358.jpg	1	lflgreen-m.png	1	lfrblue-m.png	1	blank
4.0.8.0	030117	15:13:24	3	1	3	3PP3PPTask.M	17	ILS2.outward.M	3	1	1936	1	blank	1	James (low status)	1	James (low status)	1	+   +	1	+   +	1	+ +	1	+ +	1	+	2	1357.jpg	2	lflgreen-m.png	2	rfrblue-m.png	1	blank
4.0.8.0	030117	15:13:24	3	1	3	3PP3PPTask.M	18	CLS1.M	2	1	1493	1	blank	1	James (low status)	1	James (low status)	1	+   +	1	+   +	1	+ +	1	+ +	1	+	1	3578.jpg	1	rflgreen-m.png	1	lfrblue-m.png	1	blank
4.0.8.0	030117	15:13:24	3	1	3	3PP3PPTask.M	19	CHS1.M	2	1	1559	1	blank	2	Eric (high status)	2	Eric (high status)	1	+   +	1	+   +	1	+ +	1	+ +	1	+	6	3579.jpg	6	rflblue-m.png	6	lfrgreen-m.png	1	blank
4.0.8.0	030117	15:13:24	3	1	3	3PP3PPTask.M	20	CHS1.M	2	1	1550	1	blank	2	Eric (high status)	2	Eric (high status)	1	+   +	1	+   +	1	+ +	1	+ +	1	+	2	3578.jpg	2	rflblue-m.png	2	lfrgreen-m.png	1	blank
4.0.8.0	030117	15:13:24	3	1	3	3PP3PPTask.M	21	ILS2.outward.M	3	1	2054	1	blank	1	James (low status)	1	James (low status)	1	+   +	1	+   +	1	+ +	1	+ +	1	+	1	2357.jpg	1	lflgreen-m.png	1	rfrblue-m.png	1	blank
4.0.8.0	030117	15:13:24	3	1	3	3PP3PPTask.M	22	CHS2.M	3	1	4049	1	blank	2	Eric (high status)	2	Eric (high status)	1	+   +	1	+   +	1	+ +	1	+ +	1	+	8	2457.jpg	8	rflblue-m.png	8	lfrgreen-m.png	1	blank
4.0.8.0	030117	15:13:24	3	1	3	3PP3PPTask.M	23	IHS2.parallel.leftout.M	3	1	2117	1	blank	2	Eric (high status)	2	Eric (high status)	1	+   +	1	+   +	1	+ +	1	+ +	1	+	2	2358.jpg	2	lflblue-m.png	2	lfrgreen-m.png	1	blank
4.0.8.0	030117	15:13:24	3	1	3	3PP3PPTask.M	24	ILS1.outward.M	2	1	2376	1	blank	1	James (low status)	1	James (low status)	1	+   +	1	+   +	1	+ +	1	+ +	1	+	1	3589.jpg	1	lflgreen-m.png	1	rfrblue-m.png	1	blank
4.0.8.0	030117	15:13:24	3	1	3	3PP3PPTask.M	25	CLS2.M	3	1	1807	1	blank	1	James (low status)	1	James (low status)	1	+   +	1	+   +	1	+ +	1	+ +	1	+	2	3457.jpg	2	rflblue-m.png	2	lfrgreen-m.png	1	blank
4.0.8.0	030117	15:13:24	3	1	3	3PP3PPTask.M	26	IHS1.outward.M	2	1	2331	1	blank	2	Eric (high status)	2	Eric (high status)	1	+   +	1	+   +	1	+ +	1	+ +	1	+	1	2357.jpg	1	lflgreen-m.png	1	rfrblue-m.png	1	blank
4.0.8.0	030117	15:13:24	3	1	3	3PP3PPTask.M	27	ILS2.parallel.leftout.M	3	1	1741	1	blank	1	James (low status)	1	James (low status)	1	+   +	1	+   +	1	+ +	1	+ +	1	+	1	2358.jpg	1	lflgreen-m.png	1	lfrblue-m.png	1	blank
4.0.8.0	030117	15:13:24	3	1	3	3PP3PPTask.M	28	CHS2.M	3	1	1453	1	blank	2	Eric (high status)	2	Eric (high status)	1	+   +	1	+   +	1	+ +	1	+ +	1	+	3	3568.jpg	3	rflgreen-m.png	3	lfrblue-m.png	1	blank
4.0.8.0	030117	15:13:24	3	1	3	3PP3PPTask.M	29	CLS2.M	3	1	1517	1	blank	1	James (low status)	1	James (low status)	1	+   +	1	+   +	1	+ +	1	+ +	1	+	5	3567.jpg	5	rflgreen-m.png	5	lfrblue-m.png	1	blank
4.0.8.0	030117	15:13:24	3	1	3	3PP3PPTask.M	30	IHS1.outward.M	2	1	1541	1	blank	2	Eric (high status)	2	Eric (high status)	1	+   +	1	+   +	1	+ +	1	+ +	1	+	3	3589.jpg	3	lflblue-m.png	3	rfrgreen-m.png	1	blank
4.0.8.0	030117	15:13:24	3	1	3	3PP3PPTask.M	31	IHS1.outward.M	2	1	1977	1	blank	2	Eric (high status)	2	Eric (high status)	1	+   +	1	+   +	1	+ +	1	+ +	1	+	2	1357.jpg	2	lflgreen-m.png	2	rfrblue-m.png	1	blank
4.0.8.0	030117	15:13:24	3	1	3	3PP3PPTask.M	32	IHS1.outward.M	2	1	1523	1	blank	2	Eric (high status)	2	Eric (high status)	1	+   +	1	+   +	1	+ +	1	+ +	1	+	4	3579.jpg	4	lflblue-m.png	4	rfrgreen-m.png	1	blank
4.0.8.0	030117	15:13:24	3	1	3	3PP3PPTask.M	33	CLS2.M	3	1	1531	1	blank	1	James (low status)	1	James (low status)	1	+   +	1	+   +	1	+ +	1	+ +	1	+	7	2457.jpg	7	rflgreen-m.png	7	lfrblue-m.png	1	blank
4.0.8.0	030117	15:13:24	3	1	3	3PP3PPTask.M	34	IHS2.parallel.leftout.M	3	1	5004	1	blank	2	Eric (high status)	2	Eric (high status)	1	+   +	1	+   +	1	+ +	1	+ +	1	+	1	3567.jpg	1	lflgreen-m.png	1	lfrblue-m.png	1	blank
4.0.8.0	030117	15:13:24	3	1	3	3PP3PPTask.M	35	ILS1.parallel.leftout.M	2	1	1973	1	blank	1	James (low status)	1	James (low status)	1	+   +	1	+   +	1	+ +	1	+ +	1	+	1	3567.jpg	1	lflgreen-m.png	1	lfrblue-m.png	1	blank
4.0.8.0	030117	15:13:24	3	1	3	3PP3PPTask.M	36	CHS2.M	3	1	1484	1	blank	2	Eric (high status)	2	Eric (high status)	1	+   +	1	+   +	1	+ +	1	+ +	1	+	2	3457.jpg	2	rflblue-m.png	2	lfrgreen-m.png	1	blank
4.0.8.0	030117	15:13:24	3	1	3	3PP3PPTask.M	37	IHS2.outward.M	3	1	2196	1	blank	2	Eric (high status)	2	Eric (high status)	1	+   +	1	+   +	1	+ +	1	+ +	1	+	1	3589.jpg	1	lflgreen-m.png	1	rfrblue-m.png	1	blank
4.0.8.0	030117	15:13:24	3	1	3	3PP3PPTask.M	38	CLS1.M	2	1	1521	1	blank	1	James (low status)	1	James (low status)	1	+   +	1	+   +	1	+ +	1	+ +	1	+	5	3579.jpg	5	rflgreen-m.png	5	lfrblue-m.png	1	blank
4.0.8.0	030117	15:13:24	3	1	3	3PP3PPTask.M	39	CLS1.M	2	1	1477	1	blank	1	James (low status)	1	James (low status)	1	+   +	1	+   +	1	+ +	1	+ +	1	+	3	1357.jpg	3	rflgreen-m.png	3	lfrblue-m.png	1	blank
4.0.8.0	030117	15:13:24	3	1	3	3PP3PPTask.M	40	CHS1.M	2	1	1506	1	blank	2	Eric (high status)	2	Eric (high status)	1	+   +	1	+   +	1	+ +	1	+ +	1	+	7	2357.jpg	7	rflgreen-m.png	7	lfrblue-m.png	1	blank
4.0.8.0	030117	15:13:24	3	1	3	3PP3PPTask.M	41	CHS1.M	2	1	1434	1	blank	2	Eric (high status)	2	Eric (high status)	1	+   +	1	+   +	1	+ +	1	+ +	1	+	1	3578.jpg	1	rflgreen-m.png	1	lfrblue-m.png	1	blank
4.0.8.0	030117	15:13:24	3	1	3	3PP3PPTask.M	42	CHS1.M	2	1	1469	1	blank	2	Eric (high status)	2	Eric (high status)	1	+   +	1	+   +	1	+ +	1	+ +	1	+	4	1357.jpg	4	rflblue-m.png	4	lfrgreen-m.png	1	blank
4.0.8.0	030117	15:13:24	3	1	3	3PP3PPTask.M	43	ILS2.outward.M	3	1	2651	1	blank	1	James (low status)	1	James (low status)	1	+   +	1	+   +	1	+ +	1	+ +	1	+	4	3579.jpg	4	lflblue-m.png	4	rfrgreen-m.png	1	blank
4.0.8.0	030117	15:13:24	3	1	3	3PP3PPTask.M	44	CHS2.M	3	1	1607	1	blank	2	Eric (high status)	2	Eric (high status)	1	+   +	1	+   +	1	+ +	1	+ +	1	+	7	2457.jpg	7	rflgreen-m.png	7	lfrblue-m.png	1	blank
4.0.8.0	030117	15:13:24	3	1	3	3PP3PPTask.M	45	CHS1.M	2	1	1482	1	blank	2	Eric (high status)	2	Eric (high status)	1	+   +	1	+   +	1	+ +	1	+ +	1	+	3	1357.jpg	3	rflgreen-m.png	3	lfrblue-m.png	1	blank
4.0.8.0	030117	15:13:24	3	1	3	3PP3PPTask.M	46	CLS1.M	2	1	1514	1	blank	1	James (low status)	1	James (low status)	1	+   +	1	+   +	1	+ +	1	+ +	1	+	6	3579.jpg	6	rflblue-m.png	6	lfrgreen-m.png	1	blank
4.0.8.0	030117	15:13:24	3	1	3	3PP3PPTask.M	47	ILS1.outward.M	2	1	2185	1	blank	1	James (low status)	1	James (low status)	1	+   +	1	+   +	1	+ +	1	+ +	1	+	3	2357.jpg	3	lflblue-m.png	3	rfrgreen-m.png	1	blank
4.0.8.0	030117	15:13:24	3	1	3	3PP3PPTask.M	48	ILS2.outward.M	3	1	1552	1	blank	1	James (low status)	1	James (low status)	1	+   +	1	+   +	1	+ +	1	+ +	1	+	3	3589.jpg	3	lflblue-m.png	3	rfrgreen-m.png	1	blank
4.0.8.0	030117	15:13:24	3	1	3	3PP3PPTask.M	49	CHS2.M	3	1	1501	1	blank	2	Eric (high status)	2	Eric (high status)	1	+   +	1	+   +	1	+ +	1	+ +	1	+	4	3568.jpg	4	rflblue-m.png	4	lfrgreen-m.png	1	blank
4.0.8.0	030117	15:13:24	3	1	3	3PP3PPTask.M	50	CLS1.M	2	1	1546	1	blank	1	James (low status)	1	James (low status)	1	+   +	1	+   +	1	+ +	1	+ +	1	+	8	2357.jpg	8	rflblue-m.png	8	lfrgreen-m.png	1	blank
4.0.8.0	030117	15:13:24	3	1	3	3PP3PPTask.M	51	CLS1.M	2	1	1505	1	blank	1	James (low status)	1	James (low status)	1	+   +	1	+   +	1	+ +	1	+ +	1	+	7	2357.jpg	7	rflgreen-m.png	7	lfrblue-m.png	1	blank
4.0.8.0	030117	15:13:24	3	1	3	3PP3PPTask.M	52	CLS1.M	2	1	1531	1	blank	1	James (low status)	1	James (low status)	1	+   +	1	+   +	1	+ +	1	+ +	1	+	6	3579.jpg	6	rflblue-m.png	6	lfrgreen-m.png	1	blank
4.0.8.0	030117	15:13:24	3	1	3	3PP3PPTask.M	53	CLS2.M	3	1	1478	1	blank	1	James (low status)	1	James (low status)	1	+   +	1	+   +	1	+ +	1	+ +	1	+	8	2457.jpg	8	rflblue-m.png	8	lfrgreen-m.png	1	blank
4.0.8.0	030117	15:13:24	3	1	3	3PP3PPTask.M	54	CHS1.M	2	1	1530	1	blank	2	Eric (high status)	2	Eric (high status)	1	+   +	1	+   +	1	+ +	1	+ +	1	+	5	3579.jpg	5	rflgreen-m.png	5	lfrblue-m.png	1	blank
4.0.8.0	030117	15:13:24	3	1	3	3PP3PPTask.M	55	CHS2.M	3	1	1684	1	blank	2	Eric (high status)	2	Eric (high status)	1	+   +	1	+   +	1	+ +	1	+ +	1	+	1	3457.jpg	1	rflgreen-m.png	1	lfrblue-m.png	1	blank
4.0.8.0	030117	15:13:24	3	1	3	3PP3PPTask.M	56	ILS2.outward.M	3	1	1907	1	blank	1	James (low status)	1	James (low status)	1	+   +	1	+   +	1	+ +	1	+ +	1	+	1	2357.jpg	1	lflgreen-m.png	1	rfrblue-m.png	1	blank
4.0.8.0	030117	15:13:24	3	1	3	3PP3PPTask.M	57	CLS2.M	3	1	1470	1	blank	1	James (low status)	1	James (low status)	1	+   +	1	+   +	1	+ +	1	+ +	1	+	4	3568.jpg	4	rflblue-m.png	4	lfrgreen-m.png	1	blank
4.0.8.0	030117	15:13:24	3	1	3	3PP3PPTask.M	58	ILS1.parallel.leftin.M	2	1	2202	1	blank	1	James (low status)	1	James (low status)	1	+   +	1	+   +	1	+ +	1	+ +	1	+	2	2457.jpg	2	rflblue-m.png	2	rfrgreen-m.png	1	blank
4.0.8.0	030117	15:13:24	3	1	3	3PP3PPTask.M	59	IHS2.outward.M	3	1	1672	1	blank	2	Eric (high status)	2	Eric (high status)	1	+   +	1	+   +	1	+ +	1	+ +	1	+	3	2357.jpg	3	lflblue-m.png	3	rfrgreen-m.png	1	blank
4.0.8.0	030117	15:13:24	3	1	3	3PP3PPTask.M	60	CLS1.M	2	1	1635	1	blank	1	James (low status)	1	James (low status)	1	+   +	1	+   +	1	+ +	1	+ +	1	+	8	2357.jpg	8	rflblue-m.png	8	lfrgreen-m.png	1	blank
4.0.8.0	030117	15:13:24	3	1	3	3PP3PPTask.M	61	CHS1.M	2	1	1578	1	blank	2	Eric (high status)	2	Eric (high status)	1	+   +	1	+   +	1	+ +	1	+ +	1	+	5	3579.jpg	5	rflgreen-m.png	5	lfrblue-m.png	1	blank
4.0.8.0	030117	15:13:24	3	1	3	3PP3PPTask.M	62	ILS2.parallel.leftout.M	3	1	2017	1	blank	1	James (low status)	1	James (low status)	1	+   +	1	+   +	1	+ +	1	+ +	1	+	2	3457.jpg	2	lflblue-m.png	2	lfrgreen-m.png	1	blank
4.0.8.0	030117	15:13:24	3	1	3	3PP3PPTask.M	63	CLS2.M	3	1	1449	1	blank	1	James (low status)	1	James (low status)	1	+   +	1	+   +	1	+ +	1	+ +	1	+	6	3567.jpg	6	rflblue-m.png	6	lfrgreen-m.png	1	blank
4.0.8.0	030117	15:13:24	3	1	3	3PP3PPTask.M	64	IHS2.parallel.leftin.M	2	0	1785	1	blank	2	Eric (high status)	2	Eric (high status)	1	+   +	1	+   +	1	+ +	1	+ +	1	+	1	3578.jpg	1	rflgreen-m.png	1	rfrblue-m.png	1	blank
4.0.8.0	030117	15:13:24	3	1	3	3PP3PPTask.M	65	CLS1.M	2	1	1616	1	blank	1	James (low status)	1	James (low status)	1	+   +	1	+   +	1	+ +	1	+ +	1	+	7	2357.jpg	7	rflgreen-m.png	7	lfrblue-m.png	1	blank
4.0.8.0	030117	15:13:24	3	1	3	3PP3PPTask.M	66	IHS2.parallel.leftin.M	2	0	3153	1	blank	2	Eric (high status)	2	Eric (high status)	1	+   +	1	+   +	1	+ +	1	+ +	1	+	2	2457.jpg	2	rflblue-m.png	2	rfrgreen-m.png	1	blank
4.0.8.0	030117	15:13:24	3	1	3	3PP3PPTask.M	67	CLS1.M	2	1	1447	1	blank	1	James (low status)	1	James (low status)	1	+   +	1	+   +	1	+ +	1	+ +	1	+	2	3578.jpg	2	rflblue-m.png	2	lfrgreen-m.png	1	blank
4.0.8.0	030117	15:13:24	3	1	3	3PP3PPTask.M	68	CHS1.M	2	1	1493	1	blank	2	Eric (high status)	2	Eric (high status)	1	+   +	1	+   +	1	+ +	1	+ +	1	+	8	2357.jpg	8	rflblue-m.png	8	lfrgreen-m.png	1	blank
4.0.8.0	030117	15:13:24	3	1	3	3PP3PPTask.M	69	IHS2.parallel.leftout.M	3	1	4434	1	blank	2	Eric (high status)	2	Eric (high status)	1	+   +	1	+   +	1	+ +	1	+ +	1	+	2	2358.jpg	2	lflblue-m.png	2	lfrgreen-m.png	1	blank
4.0.8.0	030117	15:13:24	3	1	3	3PP3PPTask.M	70	IHS2.outward.M	3	1	1605	1	blank	2	Eric (high status)	2	Eric (high status)	1	+   +	1	+   +	1	+ +	1	+ +	1	+	4	1357.jpg	4	lflblue-m.png	4	rfrgreen-m.png	1	blank
4.0.8.0	030117	15:13:24	3	1	3	3PP3PPTask.M	71	IHS2.outward.M	3	1	2041	1	blank	2	Eric (high status)	2	Eric (high status)	1	+   +	1	+   +	1	+ +	1	+ +	1	+	1	3589.jpg	1	lflgreen-m.png	1	rfrblue-m.png	1	blank
4.0.8.0	030117	15:13:24	3	1	3	3PP3PPTask.M	72	ILS2.parallel.leftin.M	3	1	2243	1	blank	1	James (low status)	1	James (low status)	1	+   +	1	+   +	1	+ +	1	+ +	1	+	2	3578.jpg	2	rflblue-m.png	2	rfrgreen-m.png	1	blank
4.0.8.0	030117	15:13:24	3	1	3	3PP3PPTask.M	73	IHS2.outward.M	3	1	2420	1	blank	2	Eric (high status)	2	Eric (high status)	1	+   +	1	+   +	1	+ +	1	+ +	1	+	4	1357.jpg	4	lflblue-m.png	4	rfrgreen-m.png	1	blank
4.0.8.0	030117	15:13:24	3	1	3	3PP3PPTask.M	74	IHS1.outward.M	3	0	2692	1	blank	2	Eric (high status)	2	Eric (high status)	1	+   +	1	+   +	1	+ +	1	+ +	1	+	1	2357.jpg	1	lflgreen-m.png	1	rfrblue-m.png	1	blank
4.0.8.0	030117	15:13:24	3	1	3	3PP3PPTask.M	75	ILS1.parallel.leftin.M	2	1	1869	1	blank	1	James (low status)	1	James (low status)	1	+   +	1	+   +	1	+ +	1	+ +	1	+	1	3578.jpg	1	rflgreen-m.png	1	rfrblue-m.png	1	blank
4.0.8.0	030117	15:13:24	3	1	3	3PP3PPTask.M	76	CHS2.M	3	1	1875	1	blank	2	Eric (high status)	2	Eric (high status)	1	+   +	1	+   +	1	+ +	1	+ +	1	+	7	2457.jpg	7	rflgreen-m.png	7	lfrblue-m.png	1	blank
4.0.8.0	030117	15:13:24	3	1	3	3PP3PPTask.M	77	IHS2.outward.M	3	1	1746	1	blank	2	Eric (high status)	2	Eric (high status)	1	+   +	1	+   +	1	+ +	1	+ +	1	+	3	2357.jpg	3	lflblue-m.png	3	rfrgreen-m.png	1	blank
4.0.8.0	030117	15:13:24	3	1	3	3PP3PPTask.M	78	IHS2.outward.M	3	1	1781	1	blank	2	Eric (high status)	2	Eric (high status)	1	+   +	1	+   +	1	+ +	1	+ +	1	+	2	3579.jpg	2	lflgreen-m.png	2	rfrblue-m.png	1	blank
4.0.8.0	030117	15:13:24	3	1	3	3PP3PPTask.M	79	ILS2.outward.M	3	1	2240	1	blank	1	James (low status)	1	James (low status)	1	+   +	1	+   +	1	+ +	1	+ +	1	+	4	3579.jpg	4	lflblue-m.png	4	rfrgreen-m.png	1	blank
4.0.8.0	030117	15:13:24	3	1	3	3PP3PPTask.M	80	CHS2.M	3	1	1540	1	blank	2	Eric (high status)	2	Eric (high status)	1	+   +	1	+   +	1	+ +	1	+ +	1	+	6	3567.jpg	6	rflblue-m.png	6	lfrgreen-m.png	1	blank
4.0.8.0	030117	15:13:24	3	1	3	3PP3PPTask.M	81	CLS2.M	3	1	10932	1	blank	1	James (low status)	1	James (low status)	1	+   +	1	+   +	1	+ +	1	+ +	1	+	1	3457.jpg	1	rflgreen-m.png	1	lfrblue-m.png	1	blank
4.0.8.0	030117	15:13:24	3	1	3	3PP3PPTask.M	82	IHS1.parallel.leftin.M	2	1	2001	1	blank	2	Eric (high status)	2	Eric (high status)	1	+   +	1	+   +	1	+ +	1	+ +	1	+	1	2457.jpg	1	rflgreen-m.png	1	rfrblue-m.png	1	blank
4.0.8.0	030117	15:13:24	3	1	3	3PP3PPTask.M	83	CHS1.M	2	1	1793	1	blank	2	Eric (high status)	2	Eric (high status)	1	+   +	1	+   +	1	+ +	1	+ +	1	+	4	1357.jpg	4	rflblue-m.png	4	lfrgreen-m.png	1	blank
4.0.8.0	030117	15:13:24	3	1	3	3PP3PPTask.M	84	CHS1.M	2	1	1439	1	blank	2	Eric (high status)	2	Eric (high status)	1	+   +	1	+   +	1	+ +	1	+ +	1	+	6	3579.jpg	6	rflblue-m.png	6	lfrgreen-m.png	1	blank
4.0.8.0	030117	15:13:24	3	1	3	3PP3PPTask.M	85	CHS1.M	2	1	1452	1	blank	2	Eric (high status)	2	Eric (high status)	1	+   +	1	+   +	1	+ +	1	+ +	1	+	3	1357.jpg	3	rflgreen-m.png	3	lfrblue-m.png	1	blank
4.0.8.0	030117	15:13:24	3	1	3	3PP3PPTask.M	86	CHS2.M	3	1	1536	1	blank	2	Eric (high status)	2	Eric (high status)	1	+   +	1	+   +	1	+ +	1	+ +	1	+	3	3568.jpg	3	rflgreen-m.png	3	lfrblue-m.png	1	blank
4.0.8.0	030117	15:13:24	3	1	3	3PP3PPTask.M	87	ILS2.parallel.leftin.M	3	1	1539	1	blank	1	James (low status)	1	James (low status)	1	+   +	1	+   +	1	+ +	1	+ +	1	+	1	3568.jpg	1	rflgreen-m.png	1	rfrblue-m.png	1	blank
4.0.8.0	030117	15:13:24	3	1	3	3PP3PPTask.M	88	CLS1.M	2	1	1706	1	blank	1	James (low status)	1	James (low status)	1	+   +	1	+   +	1	+ +	1	+ +	1	+	4	1357.jpg	4	rflblue-m.png	4	lfrgreen-m.png	1	blank
4.0.8.0	030117	15:13:24	3	1	3	3PP3PPTask.M	89	CLS2.M	3	1	1576	1	blank	1	James (low status)	1	James (low status)	1	+   +	1	+   +	1	+ +	1	+ +	1	+	3	3568.jpg	3	rflgreen-m.png	3	lfrblue-m.png	1	blank
4.0.8.0	030117	15:13:24	3	1	3	3PP3PPTask.M	90	CHS2.M	3	1	1551	1	blank	2	Eric (high status)	2	Eric (high status)	1	+   +	1	+   +	1	+ +	1	+ +	1	+	2	3457.jpg	2	rflblue-m.png	2	lfrgreen-m.png	1	blank
4.0.8.0	030117	15:13:24	3	1	3	3PP3PPTask.M	91	ILS1.outward.M	2	1	2076	1	blank	1	James (low status)	1	James (low status)	1	+   +	1	+   +	1	+ +	1	+ +	1	+	4	1357.jpg	4	lflblue-m.png	4	rfrgreen-m.png	1	blank
4.0.8.0	030117	15:13:24	3	1	3	3PP3PPTask.M	92	IHS1.outward.M	3	0	1969	1	blank	2	Eric (high status)	2	Eric (high status)	1	+   +	1	+   +	1	+ +	1	+ +	1	+	4	3579.jpg	4	lflblue-m.png	4	rfrgreen-m.png	1	blank
4.0.8.0	030117	15:13:24	3	1	3	3PP3PPTask.M	93	IHS1.parallel.leftout.M	2	1	1608	1	blank	2	Eric (high status)	2	Eric (high status)	1	+   +	1	+   +	1	+ +	1	+ +	1	+	2	3567.jpg	2	lflblue-m.png	2	lfrgreen-m.png	1	blank
4.0.8.0	030117	15:13:24	3	1	3	3PP3PPTask.M	94	ILS2.outward.M	3	1	1848	1	blank	1	James (low status)	1	James (low status)	1	+   +	1	+   +	1	+ +	1	+ +	1	+	2	1357.jpg	2	lflgreen-m.png	2	rfrblue-m.png	1	blank
4.0.8.0	030117	15:13:24	3	1	3	3PP3PPTask.M	95	ILS1.outward.M	3	0	1978	1	blank	1	James (low status)	1	James (low status)	1	+   +	1	+   +	1	+ +	1	+ +	1	+	2	3579.jpg	2	lflgreen-m.png	2	rfrblue-m.png	1	blank
4.0.8.0	030117	15:13:24	3	1	3	3PP3PPTask.M	96	CHS2.M	3	1	2018	1	blank	2	Eric (high status)	2	Eric (high status)	1	+   +	1	+   +	1	+ +	1	+ +	1	+	8	2457.jpg	8	rflblue-m.png	8	lfrgreen-m.png	1	blank
4.0.8.0	030117	15:13:24	3	1	3	3PP3PPTask.M	97	CHS2.M	2	0	3486	1	blank	2	Eric (high status)	2	Eric (high status)	1	+   +	1	+   +	1	+ +	1	+ +	1	+	4	3568.jpg	4	rflblue-m.png	4	lfrgreen-m.png	1	blank
4.0.8.0	030117	15:13:24	3	1	3	3PP3PPTask.M	98	CLS2.M	3	1	2175	1	blank	1	James (low status)	1	James (low status)	1	+   +	1	+   +	1	+ +	1	+ +	1	+	4	3568.jpg	4	rflblue-m.png	4	lfrgreen-m.png	1	blank
4.0.8.0	030117	15:13:24	3	1	3	3PP3PPTask.M	99	CLS2.M	3	1	1994	1	blank	1	James (low status)	1	James (low status)	1	+   +	1	+   +	1	+ +	1	+ +	1	+	8	2457.jpg	8	rflblue-m.png	8	lfrgreen-m.png	1	blank
4.0.8.0	030117	15:13:24	3	1	3	3PP3PPTask.M	100	CLS2.M	3	1	1640	1	blank	1	James (low status)	1	James (low status)	1	+   +	1	+   +	1	+ +	1	+ +	1	+	1	3457.jpg	1	rflgreen-m.png	1	lfrblue-m.png	1	blank
4.0.8.0	030117	15:13:24	3	1	3	3PP3PPTask.M	101	ILS2.parallel.leftin.M	3	1	1882	1	blank	1	James (low status)	1	James (low status)	1	+   +	1	+   +	1	+ +	1	+ +	1	+	2	3578.jpg	2	rflblue-m.png	2	rfrgreen-m.png	1	blank
4.0.8.0	030117	15:13:24	3	1	3	3PP3PPTask.M	102	CHS1.M	2	1	1651	1	blank	2	Eric (high status)	2	Eric (high status)	1	+   +	1	+   +	1	+ +	1	+ +	1	+	2	3578.jpg	2	rflblue-m.png	2	lfrgreen-m.png	1	blank
4.0.8.0	030117	15:13:24	3	1	3	3PP3PPTask.M	103	CLS2.M	3	1	1580	1	blank	1	James (low status)	1	James (low status)	1	+   +	1	+   +	1	+ +	1	+ +	1	+	2	3457.jpg	2	rflblue-m.png	2	lfrgreen-m.png	1	blank
4.0.8.0	030117	15:13:24	3	1	3	3PP3PPTask.M	104	IHS1.outward.M	2	1	2060	1	blank	2	Eric (high status)	2	Eric (high status)	1	+   +	1	+   +	1	+ +	1	+ +	1	+	3	3589.jpg	3	lflblue-m.png	3	rfrgreen-m.png	1	blank
4.0.8.0	030117	15:13:24	3	1	3	3PP3PPTask.M	105	ILS1.parallel.leftin.M	2	1	2655	1	blank	1	James (low status)	1	James (low status)	1	+   +	1	+   +	1	+ +	1	+ +	1	+	2	2457.jpg	2	rflblue-m.png	2	rfrgreen-m.png	1	blank
4.0.8.0	030117	15:13:24	3	1	3	3PP3PPTask.M	106	CLS1.M	2	1	1512	1	blank	1	James (low status)	1	James (low status)	1	+   +	1	+   +	1	+ +	1	+ +	1	+	5	3579.jpg	5	rflgreen-m.png	5	lfrblue-m.png	1	blank
4.0.8.0	030117	15:13:24	3	1	3	3PP3PPTask.M	107	ILS2.outward.M	2	0	2474	1	blank	1	James (low status)	1	James (low status)	1	+   +	1	+   +	1	+ +	1	+ +	1	+	3	3589.jpg	3	lflblue-m.png	3	rfrgreen-m.png	1	blank
4.0.8.0	030117	15:13:24	3	1	3	3PP3PPTask.M	108	CLS1.M	2	1	1748	1	blank	1	James (low status)	1	James (low status)	1	+   +	1	+   +	1	+ +	1	+ +	1	+	1	3578.jpg	1	rflgreen-m.png	1	lfrblue-m.png	1	blank
4.0.8.0	030117	15:13:24	3	1	3	3PP3PPTask.M	109	ILS1.outward.M	2	1	2104	1	blank	1	James (low status)	1	James (low status)	1	+   +	1	+   +	1	+ +	1	+ +	1	+	4	1357.jpg	4	lflblue-m.png	4	rfrgreen-m.png	1	blank
4.0.8.0	030117	15:13:24	3	1	3	3PP3PPTask.M	110	IHS2.parallel.leftin.M	3	1	2435	1	blank	2	Eric (high status)	2	Eric (high status)	1	+   +	1	+   +	1	+ +	1	+ +	1	+	1	3578.jpg	1	rflgreen-m.png	1	rfrblue-m.png	1	blank
4.0.8.0	030117	15:13:24	3	1	3	3PP3PPTask.M	111	CHS1.M	2	1	1846	1	blank	2	Eric (high status)	2	Eric (high status)	1	+   +	1	+   +	1	+ +	1	+ +	1	+	7	2357.jpg	7	rflgreen-m.png	7	lfrblue-m.png	1	blank
4.0.8.0	030117	15:13:24	3	1	3	3PP3PPTask.M	112	ILS1.parallel.leftout.M	3	0	1833	1	blank	1	James (low status)	1	James (low status)	1	+   +	1	+   +	1	+ +	1	+ +	1	+	1	3567.jpg	1	lflgreen-m.png	1	lfrblue-m.png	1	blank
4.0.8.0	030117	15:13:24	3	1	3	3PP3PPTask.M	113	IHS2.parallel.leftin.M	3	1	2743	1	blank	2	Eric (high status)	2	Eric (high status)	1	+   +	1	+   +	1	+ +	1	+ +	1	+	2	2457.jpg	2	rflblue-m.png	2	rfrgreen-m.png	1	blank
4.0.8.0	030117	15:13:24	3	1	3	3PP3PPTask.M	114	CHS2.M	3	1	1539	1	blank	2	Eric (high status)	2	Eric (high status)	1	+   +	1	+   +	1	+ +	1	+ +	1	+	5	3567.jpg	5	rflgreen-m.png	5	lfrblue-m.png	1	blank
4.0.8.0	030117	15:13:24	3	1	3	3PP3PPTask.M	115	CLS2.M	3	1	1864	1	blank	1	James (low status)	1	James (low status)	1	+   +	1	+   +	1	+ +	1	+ +	1	+	3	3568.jpg	3	rflgreen-m.png	3	lfrblue-m.png	1	blank
4.0.8.0	030117	15:13:24	3	1	3	3PP3PPTask.M	116	ILS1.outward.M	2	1	1638	1	blank	1	James (low status)	1	James (low status)	1	+   +	1	+   +	1	+ +	1	+ +	1	+	3	2357.jpg	3	lflblue-m.png	3	rfrgreen-m.png	1	blank
4.0.8.0	030117	15:13:24	3	1	3	3PP3PPTask.M	117	CHS1.M	2	1	1680	1	blank	2	Eric (high status)	2	Eric (high status)	1	+   +	1	+   +	1	+ +	1	+ +	1	+	1	3578.jpg	1	rflgreen-m.png	1	lfrblue-m.png	1	blank
4.0.8.0	030117	15:13:24	3	1	3	3PP3PPTask.M	118	CLS2.M	3	1	1475	1	blank	1	James (low status)	1	James (low status)	1	+   +	1	+   +	1	+ +	1	+ +	1	+	5	3567.jpg	5	rflgreen-m.png	5	lfrblue-m.png	1	blank
4.0.8.0	030117	15:13:24	3	1	3	3PP3PPTask.M	119	CLS2.M	3	1	1509	1	blank	1	James (low status)	1	James (low status)	1	+   +	1	+   +	1	+ +	1	+ +	1	+	6	3567.jpg	6	rflblue-m.png	6	lfrgreen-m.png	1	blank
4.0.8.0	030117	15:13:24	3	1	3	3PP3PPTask.M	120	IHS1.parallel.leftout.M	2	1	1897	1	blank	2	Eric (high status)	2	Eric (high status)	1	+   +	1	+   +	1	+ +	1	+ +	1	+	1	2358.jpg	1	lflgreen-m.png	1	lfrblue-m.png	1	blank
4.0.8.0	030117	15:13:24	3	1	3	3PP3PPTask.M	121	IHS2.parallel.leftout.M	3	1	2262	1	blank	2	Eric (high status)	2	Eric (high status)	1	+   +	1	+   +	1	+ +	1	+ +	1	+	1	3567.jpg	1	lflgreen-m.png	1	lfrblue-m.png	1	blank
4.0.8.0	030117	15:13:24	3	1	3	3PP3PPTask.M	122	IHS1.outward.M	2	1	1950	1	blank	2	Eric (high status)	2	Eric (high status)	1	+   +	1	+   +	1	+ +	1	+ +	1	+	2	1357.jpg	2	lflgreen-m.png	2	rfrblue-m.png	1	blank
4.0.8.0	030117	15:13:24	3	1	3	3PP3PPTask.M	123	CLS1.M	2	1	2021	1	blank	1	James (low status)	1	James (low status)	1	+   +	1	+   +	1	+ +	1	+ +	1	+	3	1357.jpg	3	rflgreen-m.png	3	lfrblue-m.png	1	blank
4.0.8.0	030117	15:13:24	3	1	3	3PP3PPTask.M	124	IHS1.parallel.leftout.M	2	1	2646	1	blank	2	Eric (high status)	2	Eric (high status)	1	+   +	1	+   +	1	+ +	1	+ +	1	+	2	3567.jpg	2	lflblue-m.png	2	lfrgreen-m.png	1	blank
4.0.8.0	030117	15:13:24	3	1	3	3PP3PPTask.M	125	IHS1.parallel.leftin.M	2	1	2231	1	blank	2	Eric (high status)	2	Eric (high status)	1	+   +	1	+   +	1	+ +	1	+ +	1	+	2	3578.jpg	2	rflblue-m.png	2	rfrgreen-m.png	1	blank
4.0.8.0	030117	15:13:24	3	1	3	3PP3PPTask.M	126	IHS1.parallel.leftin.M	3	0	1934	1	blank	2	Eric (high status)	2	Eric (high status)	1	+   +	1	+   +	1	+ +	1	+ +	1	+	2	3578.jpg	2	rflblue-m.png	2	rfrgreen-m.png	1	blank
4.0.8.0	030117	15:13:24	3	1	3	3PP3PPTask.M	127	CLS2.M	3	1	1477	1	blank	1	James (low status)	1	James (low status)	1	+   +	1	+   +	1	+ +	1	+ +	1	+	7	2457.jpg	7	rflgreen-m.png	7	lfrblue-m.png	1	blank
4.0.8.0	030117	15:13:24	3	1	3	3PP3PPTask.M	128	ILS1.outward.M	2	1	2184	1	blank	1	James (low status)	1	James (low status)	1	+   +	1	+   +	1	+ +	1	+ +	1	+	1	3589.jpg	1	lflgreen-m.png	1	rfrblue-m.png	1	blank
4.0.8.0	030117	15:13:24	3	1	3	3PP3PPTask.M	129	IHS1.parallel.leftin.M	2	1	1586	1	blank	2	Eric (high status)	2	Eric (high status)	1	+   +	1	+   +	1	+ +	1	+ +	1	+	1	2457.jpg	1	rflgreen-m.png	1	rfrblue-m.png	1	blank
4.0.8.0	030117	15:13:24	3	1	3	3PP3PPTask.M	130	ILS1.parallel.leftout.M	2	1	2306	1	blank	1	James (low status)	1	James (low status)	1	+   +	1	+   +	1	+ +	1	+ +	1	+	2	2358.jpg	2	lflblue-m.png	2	lfrgreen-m.png	1	blank
4.0.8.0	030117	15:13:24	3	1	3	3PP3PPTask.M	131	ILS2.parallel.leftin.M	3	1	1521	1	blank	1	James (low status)	1	James (low status)	1	+   +	1	+   +	1	+ +	1	+ +	1	+	1	3568.jpg	1	rflgreen-m.png	1	rfrblue-m.png	1	blank
4.0.8.0	030117	15:13:24	3	1	3	3PP3PPTask.M	132	finish	57	0	1640	1	Thank you for completing the perspective-taking task.    Please write down this code: 280186    When you have done so, you may close out of this program and return to the browser tab containing the survey that directed you here.  In order to continue with the survey, you will be asked to enter the above code.  Please note that this is NOT your MTurk completion code.  You will receive your MTurk completion code after finishing the survey.    To exit this program, please press space bar.	0	0	0	0	0	0	0	0	0	0	0	0	0	0	0	0	0	0	0	0	0	0
