build	date	time	subject	group	blocknum	blockcode	trialnum	trialcode	response	correct	latency	stimulusnumber1	stimulusitem1	stimulusnumber2	stimulusitem2	stimulusnumber3	stimulusitem3	stimulusnumber4	stimulusitem4	stimulusnumber5	stimulusitem5	stimulusnumber6	stimulusitem6	stimulusnumber7	stimulusitem7	stimulusnumber8	stimulusitem8	stimulusnumber9	stimulusitem9	stimulusnumber10	stimulusitem10	stimulusnumber11	stimulusitem11	stimulusnumber12	stimulusitem12
4.0.8.0	030117	14:53:57	1	1	1	3PP3PPTaskInstructions.F	1	instruct1.F	57	1	1478	1	PERSPECTIVES TASK     Thank you for your participation thusfar.    You will now complete a series of tasks that require you to view a three dimensional (3D) space from different perspectives.	1	Please press space bar to continue.	1	blankav.png	0	0	0	0	0	0	0	0	0	0	0	0	0	0	0	0	0	0
4.0.8.0	030117	14:53:57	1	1	1	3PP3PPTaskInstructions.F	2	instruct1.F	57	1	7156	2	On each trial, you will view a 3D environment with the avatars representing Jenny (low status) and Erica (high status).    Opposite the two avatars on the far wall of the 3D space, you will see a total of four dots.  You will also see some visual barriers perpendicular to the back wall.	2	Please press space bar to see an example of this 3D space.	2	blankav.png	0	0	0	0	0	0	0	0	0	0	0	0	0	0	0	0	0	0
4.0.8.0	030117	14:53:57	1	1	1	3PP3PPTaskInstructions.F	3	instruct1.F	3	1	318818	3	3D SPACE EXAMPLE, PART 1:    Note that the avatar on the left can only see the two dots in the middle; the dots on the far left and far right are obscured by the barriers.  Remember that avatars can only ever see dots in the direction that they are facing.	3	How many dots can the avatar on the right see?  Press 1 or 2.	3	example-f.jpg	0	0	0	0	0	0	0	0	0	0	0	0	0	0	0	0	0	0
4.0.8.0	030117	14:53:57	1	1	1	3PP3PPTaskInstructions.F	4	instruct1.F	57	1	6323	4	Let's get some more practice taking perspectives in this 3D environment.    In the next few slides, we will present you with just one avatar within the 3D environment. All you need to do is indicate how many dots that avatar can see by pressing the 1 or 2 key on your keyboard.	4	Please press space bar to continue.	4	blankav.png	0	0	0	0	0	0	0	0	0	0	0	0	0	0	0	0	0	0
4.0.8.0	030117	14:53:57	1	1	1	3PP3PPTaskInstructions.F	5	instruct1.F	57	1	8056	5	Remember: Even though you personally can see all the dots, the avatars can see dots on only one side of any given barrier--including the barrier on their own side.	5	Please press space bar to continue.	5	blankav.png	0	0	0	0	0	0	0	0	0	0	0	0	0	0	0	0	0	0
4.0.8.0	030117	14:53:57	1	1	1	3PP3PPTaskInstructions.F	6	introtask.HS.F	3	1	917	1	+   +	1	+   +	1	+ +	1	+ +	1	+	4	2457.jpg	4	blankav.png	4	lfrgreen-f.png	0	0	0	0	0	0	0	0
4.0.8.0	030117	14:53:57	1	1	1	3PP3PPTaskInstructions.F	7	introtask.HS.F	2	1	503	1	+   +	1	+   +	1	+ +	1	+ +	1	+	1	1357.jpg	1	rflgreen-f.png	1	blankav.png	0	0	0	0	0	0	0	0
4.0.8.0	030117	14:53:57	1	1	1	3PP3PPTaskInstructions.F	8	introtask.HS.F	2	1	352	1	+   +	1	+   +	1	+ +	1	+ +	1	+	9	3579.jpg	9	rflgreen-f.png	9	blankav.png	0	0	0	0	0	0	0	0
4.0.8.0	030117	14:53:57	1	1	1	3PP3PPTaskInstructions.F	9	introtask.LS.F	2	1	407	1	+   +	1	+   +	1	+ +	1	+ +	1	+	8	3578.jpg	8	blankav.png	8	lfrblue-f.png	0	0	0	0	0	0	0	0
4.0.8.0	030117	14:53:57	1	1	1	3PP3PPTaskInstructions.F	10	introtask.LS.F	3	1	300	1	+   +	1	+   +	1	+ +	1	+ +	1	+	6	3567.jpg	6	blankav.png	6	lfrblue-f.png	0	0	0	0	0	0	0	0
4.0.8.0	030117	14:53:57	1	1	1	3PP3PPTaskInstructions.F	11	introtask.LS.F	2	0	335	1	+   +	1	+   +	1	+ +	1	+ +	1	+	5	3457.jpg	5	rflblue-f.png	5	blankav.png	1	Incorrect:   Remember that avatars can see only dots in the area they are facing; they see only one side of their nearest barrier.  Pay close attention to the direction the avatar is facing.	0	0	0	0	0	0
4.0.8.0	030117	14:53:57	1	1	1	3PP3PPTaskInstructions.F	12	introtask.LS.F	3	1	346	1	+   +	1	+   +	1	+ +	1	+ +	1	+	4	2457.jpg	4	blankav.png	4	lfrblue-f.png	0	0	0	0	0	0	0	0
4.0.8.0	030117	14:53:57	1	1	1	3PP3PPTaskInstructions.F	13	introtask.LS.F	2	1	385	1	+   +	1	+   +	1	+ +	1	+ +	1	+	3	2358.jpg	3	rflblue-f.png	3	blankav.png	0	0	0	0	0	0	0	0
4.0.8.0	030117	14:53:57	1	1	1	3PP3PPTaskInstructions.F	14	introtask.LS.F	2	1	439	1	+   +	1	+   +	1	+ +	1	+ +	1	+	1	1357.jpg	1	rflblue-f.png	1	blankav.png	0	0	0	0	0	0	0	0
4.0.8.0	030117	14:53:57	1	1	1	3PP3PPTaskInstructions.F	15	introtask.LS.F	2	1	379	1	+   +	1	+   +	1	+ +	1	+ +	1	+	10	3589.jpg	10	blankav.png	10	lfrblue-f.png	0	0	0	0	0	0	0	0
4.0.8.0	030117	14:53:57	1	1	1	3PP3PPTaskInstructions.F	16	introtask.HS.F	2	1	319	1	+   +	1	+   +	1	+ +	1	+ +	1	+	8	3578.jpg	8	blankav.png	8	lfrgreen-f.png	0	0	0	0	0	0	0	0
4.0.8.0	030117	14:53:57	1	1	1	3PP3PPTaskInstructions.F	17	introtask.HS.F	2	1	305	1	+   +	1	+   +	1	+ +	1	+ +	1	+	10	3589.jpg	10	blankav.png	10	lfrgreen-f.png	0	0	0	0	0	0	0	0
4.0.8.0	030117	14:53:57	1	1	1	3PP3PPTaskInstructions.F	18	introtask.HS.F	2	1	294	1	+   +	1	+   +	1	+ +	1	+ +	1	+	2	2357.jpg	2	blankav.png	2	lfrgreen-f.png	0	0	0	0	0	0	0	0
4.0.8.0	030117	14:53:57	1	1	1	3PP3PPTaskInstructions.F	19	introtask.LS.F	2	1	405	1	+   +	1	+   +	1	+ +	1	+ +	1	+	9	3579.jpg	9	rflblue-f.png	9	blankav.png	0	0	0	0	0	0	0	0
4.0.8.0	030117	14:53:57	1	1	1	3PP3PPTaskInstructions.F	20	introtask.HS.F	2	1	358	1	+   +	1	+   +	1	+ +	1	+ +	1	+	3	2358.jpg	3	rflgreen-f.png	3	blankav.png	0	0	0	0	0	0	0	0
4.0.8.0	030117	14:53:57	1	1	1	3PP3PPTaskInstructions.F	21	introtask.LS.F	2	1	413	1	+   +	1	+   +	1	+ +	1	+ +	1	+	2	2357.jpg	2	blankav.png	2	lfrblue-f.png	0	0	0	0	0	0	0	0
4.0.8.0	030117	14:53:57	1	1	1	3PP3PPTaskInstructions.F	22	introtask.HS.F	3	1	529	1	+   +	1	+   +	1	+ +	1	+ +	1	+	5	3457.jpg	5	rflgreen-f.png	5	blankav.png	0	0	0	0	0	0	0	0
4.0.8.0	030117	14:53:57	1	1	1	3PP3PPTaskInstructions.F	23	introtask.LS.F	3	1	543	1	+   +	1	+   +	1	+ +	1	+ +	1	+	7	3568.jpg	7	rflblue-f.png	7	blankav.png	0	0	0	0	0	0	0	0
4.0.8.0	030117	14:53:57	1	1	1	3PP3PPTaskInstructions.F	24	introtask.HS.F	3	1	396	1	+   +	1	+   +	1	+ +	1	+ +	1	+	6	3567.jpg	6	blankav.png	6	lfrgreen-f.png	0	0	0	0	0	0	0	0
4.0.8.0	030117	14:53:57	1	1	1	3PP3PPTaskInstructions.F	25	introtask.HS.F	3	1	326	1	+   +	1	+   +	1	+ +	1	+ +	1	+	7	3568.jpg	7	rflgreen-f.png	7	blankav.png	0	0	0	0	0	0	0	0
4.0.8.0	030117	14:53:57	1	1	1	3PP3PPTaskInstructions.F	26	instruct2	57	1	1116	1	Now that you're familiar with the 3D environment, let's continue to a slightly more difficult task.    Before viewing the 3D environment on each trial, you will see a brief prompt. The prompt will indicate which target's perspective you will be taking in that trial.    Your task is to determine how many dots the prompted avatar can see.	1	Please press space bar to continue.	0	0	0	0	0	0	0	0	0	0	0	0	0	0	0	0	0	0	0	0
4.0.8.0	030117	14:53:57	1	1	1	3PP3PPTaskInstructions.F	27	instruct2	57	1	11787	2	TRIAL EXAMPLE:    The prompt says you should take Jenny's (blue avatar, low status) perspective. In the 3D space that follows, Jenny's avatar sees exactly two dots. In this case, you would respond by pressing the 2 key.    If the prompted perspective sees just one dot, then you would press the 1 key instead.	2	Please press space bar to continue.	0	0	0	0	0	0	0	0	0	0	0	0	0	0	0	0	0	0	0	0
4.0.8.0	030117	14:53:57	1	1	1	3PP3PPTaskInstructions.F	28	instruct2	57	1	1752	3	KEYBOARD USE:    If the prompted avatar sees one dot, press the 1 key.  If the prompted avatar sees two dots, press the 2 key.	3	Please press space bar to continue.	0	0	0	0	0	0	0	0	0	0	0	0	0	0	0	0	0	0	0	0
4.0.8.0	030117	14:53:57	1	1	1	3PP3PPTaskInstructions.F	29	instruct2	2	1	1778	4	FINGER PLACEMENT:     Because the 1 and the 2 keys are so close, we ask that you use your right hand only. Please place your right pointer finger over the 1 key and your right middle finger over the 2 key.    You may find it easier to use the 1 and 2 keys on your keyboard's number pad, if available.	4	Please press the 1 key to continue.	0	0	0	0	0	0	0	0	0	0	0	0	0	0	0	0	0	0	0	0
4.0.8.0	030117	14:53:57	1	1	1	3PP3PPTaskInstructions.F	30	instruct2	3	1	2370	5	For the following practice trials, we encourage you complete the trials as quickly and accurately as possible.	5	Please press the 2 key when you are ready to begin.	0	0	0	0	0	0	0	0	0	0	0	0	0	0	0	0	0	0	0	0
4.0.8.0	030117	14:53:57	1	1	2	3PP3PPTaskPractice.F	1	IHS2.parallel.leftin.F	3	1	610	1	blank	2	Erica (high status)	2	Erica (high status)	1	+   +	1	+   +	1	+ +	1	+ +	1	+	1	3578.jpg	1	rflblue-f.png	1	rfrgreen-f.png	1	blank
4.0.8.0	030117	14:53:57	1	1	2	3PP3PPTaskPractice.F	2	ILS2.outward.F	3	1	504	1	blank	1	Jenny (low status)	1	Jenny (low status)	1	+   +	1	+   +	1	+ +	1	+ +	1	+	3	3589.jpg	3	lflgreen-f.png	3	rfrblue-f.png	1	blank
4.0.8.0	030117	14:53:57	1	1	2	3PP3PPTaskPractice.F	3	IHS2.parallel.leftout.F	3	1	838	1	blank	2	Erica (high status)	2	Erica (high status)	1	+   +	1	+   +	1	+ +	1	+ +	1	+	2	2358.jpg	2	lflgreen-f.png	2	lfrblue-f.png	1	blank
4.0.8.0	030117	14:53:57	1	1	2	3PP3PPTaskPractice.F	4	IHS1.parallel.leftout.F	2	1	1924	1	blank	2	Erica (high status)	2	Erica (high status)	1	+   +	1	+   +	1	+ +	1	+ +	1	+	2	3567.jpg	2	lflgreen-f.png	2	lfrblue-f.png	1	blank
4.0.8.0	030117	14:53:57	1	1	2	3PP3PPTaskPractice.F	5	CHS2.F	3	1	512	1	blank	2	Erica (high status)	2	Erica (high status)	1	+   +	1	+   +	1	+ +	1	+ +	1	+	6	3567.jpg	6	rflgreen-f.png	6	lfrblue-f.png	1	blank
4.0.8.0	030117	14:53:57	1	1	2	3PP3PPTaskPractice.F	6	IHS2.outward.F	3	1	623	1	blank	2	Erica (high status)	2	Erica (high status)	1	+   +	1	+   +	1	+ +	1	+ +	1	+	4	1357.jpg	4	lflgreen-f.png	4	rfrblue-f.png	1	blank
4.0.8.0	030117	14:53:57	1	1	2	3PP3PPTaskPractice.F	7	ILS2.parallel.leftin.F	3	1	670	1	blank	1	Jenny (low status)	1	Jenny (low status)	1	+   +	1	+   +	1	+ +	1	+ +	1	+	2	3578.jpg	2	rflgreen-f.png	2	rfrblue-f.png	1	blank
4.0.8.0	030117	14:53:57	1	1	2	3PP3PPTaskPractice.F	8	ILS1.outward.F	2	1	2132	1	blank	1	Jenny (low status)	1	Jenny (low status)	1	+   +	1	+   +	1	+ +	1	+ +	1	+	2	3579.jpg	2	lflblue-f.png	2	rfrgreen-f.png	1	blank
4.0.8.0	030117	14:53:57	1	1	2	3PP3PPTaskPractice.F	9	CLS2.F	3	1	526	1	blank	1	Jenny (low status)	1	Jenny (low status)	1	+   +	1	+   +	1	+ +	1	+ +	1	+	7	2457.jpg	7	rflblue-f.png	7	lfrgreen-f.png	1	blank
4.0.8.0	030117	14:53:57	1	1	2	3PP3PPTaskPractice.F	10	ILS1.outward.F	2	1	2526	1	blank	1	Jenny (low status)	1	Jenny (low status)	1	+   +	1	+   +	1	+ +	1	+ +	1	+	3	2357.jpg	3	lflgreen-f.png	3	rfrblue-f.png	1	blank
4.0.8.0	030117	14:53:57	1	1	2	3PP3PPTaskPractice.F	11	CLS1.F	2	1	1547	1	blank	1	Jenny (low status)	1	Jenny (low status)	1	+   +	1	+   +	1	+ +	1	+ +	1	+	6	3579.jpg	6	rflgreen-f.png	6	lfrblue-f.png	1	blank
4.0.8.0	030117	14:53:57	1	1	2	3PP3PPTaskPractice.F	12	ILS2.parallel.leftout.F	3	1	596	1	blank	1	Jenny (low status)	1	Jenny (low status)	1	+   +	1	+   +	1	+ +	1	+ +	1	+	1	2358.jpg	1	lflblue-f.png	1	lfrgreen-f.png	1	blank
4.0.8.0	030117	14:53:57	1	1	2	3PP3PPTaskPractice.F	13	pracblockfb.F	57	0	1492	1	You got 12 out of 13 trials correct.   Please press space bar to continue.	0	0	0	0	0	0	0	0	0	0	0	0	0	0	0	0	0	0	0	0	0	0
4.0.8.0	030117	14:53:57	1	1	2	3PP3PPTaskPractice.F	14	pracblockpass	57	0	1106	1	Well done.  You're now ready to start the experimental block.   Please press space bar to continue.	0	0	0	0	0	0	0	0	0	0	0	0	0	0	0	0	0	0	0	0	0	0
4.0.8.0	030117	14:53:57	1	1	3	3PP3PPTask.F	1	instruct3	57	1	1680	1	REMINDER:    Jenny is the low-status avatar.  Low status is represented by blue.    Erica is the high-status avatar.  High status is represented by green.	1	Please press space bar to continue.	0	0	0	0	0	0	0	0	0	0	0	0	0	0	0	0	0	0	0	0
4.0.8.0	030117	14:53:57	1	1	3	3PP3PPTask.F	2	instruct3	57	1	1076	2	REMINDER:    The 1 key means that the target avatar sees one (1) dot.    The 2 key means that the target avatar sees two (2) dots.	2	Please press space bar to continue.	0	0	0	0	0	0	0	0	0	0	0	0	0	0	0	0	0	0	0	0
4.0.8.0	030117	14:53:57	1	1	3	3PP3PPTask.F	3	instruct3	3	1	1127	3	Time to get ready:    Please ensure your fingers are in the correct positions over the 1 and 2 keys on your keyboard.    The first experimental block begins after this screen.  Please remember to respond as QUICKLY and ACCURATELY as possible on all trials.	3	Please press the 2 key when you are ready to begin.	0	0	0	0	0	0	0	0	0	0	0	0	0	0	0	0	0	0	0	0
4.0.8.0	030117	14:53:57	1	1	3	3PP3PPTask.F	4	ILS2.parallel.leftout.F	3	1	1708	1	blank	1	Jenny (low status)	1	Jenny (low status)	1	+   +	1	+   +	1	+ +	1	+ +	1	+	2	3457.jpg	2	lflgreen-f.png	2	lfrblue-f.png	1	blank
4.0.8.0	030117	14:53:57	1	1	3	3PP3PPTask.F	5	CLS1.F	2	1	1146	1	blank	1	Jenny (low status)	1	Jenny (low status)	1	+   +	1	+   +	1	+ +	1	+ +	1	+	7	2357.jpg	7	rflblue-f.png	7	lfrgreen-f.png	1	blank
4.0.8.0	030117	14:53:57	1	1	3	3PP3PPTask.F	6	ILS2.outward.F	3	1	2283	1	blank	1	Jenny (low status)	1	Jenny (low status)	1	+   +	1	+   +	1	+ +	1	+ +	1	+	1	2357.jpg	1	lflblue-f.png	1	rfrgreen-f.png	1	blank
4.0.8.0	030117	14:53:57	1	1	3	3PP3PPTask.F	7	CHS1.F	2	1	686	1	blank	2	Erica (high status)	2	Erica (high status)	1	+   +	1	+   +	1	+ +	1	+ +	1	+	5	3579.jpg	5	rflblue-f.png	5	lfrgreen-f.png	1	blank
4.0.8.0	030117	14:53:57	1	1	3	3PP3PPTask.F	8	CHS2.F	3	1	660	1	blank	2	Erica (high status)	2	Erica (high status)	1	+   +	1	+   +	1	+ +	1	+ +	1	+	2	3457.jpg	2	rflgreen-f.png	2	lfrblue-f.png	1	blank
4.0.8.0	030117	14:53:57	1	1	3	3PP3PPTask.F	9	ILS1.parallel.leftout.F	2	1	983	1	blank	1	Jenny (low status)	1	Jenny (low status)	1	+   +	1	+   +	1	+ +	1	+ +	1	+	2	2358.jpg	2	lflgreen-f.png	2	lfrblue-f.png	1	blank
4.0.8.0	030117	14:53:57	1	1	3	3PP3PPTask.F	10	CLS2.F	3	1	722	1	blank	1	Jenny (low status)	1	Jenny (low status)	1	+   +	1	+   +	1	+ +	1	+ +	1	+	5	3567.jpg	5	rflblue-f.png	5	lfrgreen-f.png	1	blank
4.0.8.0	030117	14:53:57	1	1	3	3PP3PPTask.F	11	ILS2.outward.F	3	1	1160	1	blank	1	Jenny (low status)	1	Jenny (low status)	1	+   +	1	+   +	1	+ +	1	+ +	1	+	2	1357.jpg	2	lflblue-f.png	2	rfrgreen-f.png	1	blank
4.0.8.0	030117	14:53:57	1	1	3	3PP3PPTask.F	12	IHS2.outward.F	3	1	1286	1	blank	2	Erica (high status)	2	Erica (high status)	1	+   +	1	+   +	1	+ +	1	+ +	1	+	1	3589.jpg	1	lflblue-f.png	1	rfrgreen-f.png	1	blank
4.0.8.0	030117	14:53:57	1	1	3	3PP3PPTask.F	13	CLS1.F	2	1	598	1	blank	1	Jenny (low status)	1	Jenny (low status)	1	+   +	1	+   +	1	+ +	1	+ +	1	+	8	2357.jpg	8	rflgreen-f.png	8	lfrblue-f.png	1	blank
4.0.8.0	030117	14:53:57	1	1	3	3PP3PPTask.F	14	IHS1.parallel.leftout.F	2	1	1004	1	blank	2	Erica (high status)	2	Erica (high status)	1	+   +	1	+   +	1	+ +	1	+ +	1	+	1	2358.jpg	1	lflblue-f.png	1	lfrgreen-f.png	1	blank
4.0.8.0	030117	14:53:57	1	1	3	3PP3PPTask.F	15	CHS2.F	3	1	947	1	blank	2	Erica (high status)	2	Erica (high status)	1	+   +	1	+   +	1	+ +	1	+ +	1	+	5	3567.jpg	5	rflblue-f.png	5	lfrgreen-f.png	1	blank
4.0.8.0	030117	14:53:57	1	1	3	3PP3PPTask.F	16	CHS2.F	3	1	586	1	blank	2	Erica (high status)	2	Erica (high status)	1	+   +	1	+   +	1	+ +	1	+ +	1	+	1	3457.jpg	1	rflblue-f.png	1	lfrgreen-f.png	1	blank
4.0.8.0	030117	14:53:57	1	1	3	3PP3PPTask.F	17	ILS2.parallel.leftout.F	3	1	1778	1	blank	1	Jenny (low status)	1	Jenny (low status)	1	+   +	1	+   +	1	+ +	1	+ +	1	+	1	2358.jpg	1	lflblue-f.png	1	lfrgreen-f.png	1	blank
4.0.8.0	030117	14:53:57	1	1	3	3PP3PPTask.F	18	IHS2.parallel.leftout.F	3	1	1915	1	blank	2	Erica (high status)	2	Erica (high status)	1	+   +	1	+   +	1	+ +	1	+ +	1	+	2	2358.jpg	2	lflgreen-f.png	2	lfrblue-f.png	1	blank
4.0.8.0	030117	14:53:57	1	1	3	3PP3PPTask.F	19	ILS2.outward.F	3	1	760	1	blank	1	Jenny (low status)	1	Jenny (low status)	1	+   +	1	+   +	1	+ +	1	+ +	1	+	4	3579.jpg	4	lflgreen-f.png	4	rfrblue-f.png	1	blank
4.0.8.0	030117	14:53:57	1	1	3	3PP3PPTask.F	20	CHS2.F	3	1	639	1	blank	2	Erica (high status)	2	Erica (high status)	1	+   +	1	+   +	1	+ +	1	+ +	1	+	8	2457.jpg	8	rflgreen-f.png	8	lfrblue-f.png	1	blank
4.0.8.0	030117	14:53:57	1	1	3	3PP3PPTask.F	21	CHS2.F	3	1	551	1	blank	2	Erica (high status)	2	Erica (high status)	1	+   +	1	+   +	1	+ +	1	+ +	1	+	3	3568.jpg	3	rflblue-f.png	3	lfrgreen-f.png	1	blank
4.0.8.0	030117	14:53:57	1	1	3	3PP3PPTask.F	22	CHS1.F	2	1	608	1	blank	2	Erica (high status)	2	Erica (high status)	1	+   +	1	+   +	1	+ +	1	+ +	1	+	1	3578.jpg	1	rflblue-f.png	1	lfrgreen-f.png	1	blank
4.0.8.0	030117	14:53:57	1	1	3	3PP3PPTask.F	23	ILS2.parallel.leftin.F	3	1	783	1	blank	1	Jenny (low status)	1	Jenny (low status)	1	+   +	1	+   +	1	+ +	1	+ +	1	+	1	3568.jpg	1	rflblue-f.png	1	rfrgreen-f.png	1	blank
4.0.8.0	030117	14:53:57	1	1	3	3PP3PPTask.F	24	CHS1.F	2	1	770	1	blank	2	Erica (high status)	2	Erica (high status)	1	+   +	1	+   +	1	+ +	1	+ +	1	+	3	1357.jpg	3	rflblue-f.png	3	lfrgreen-f.png	1	blank
4.0.8.0	030117	14:53:57	1	1	3	3PP3PPTask.F	25	ILS2.outward.F	3	1	504	1	blank	1	Jenny (low status)	1	Jenny (low status)	1	+   +	1	+   +	1	+ +	1	+ +	1	+	3	3589.jpg	3	lflgreen-f.png	3	rfrblue-f.png	1	blank
4.0.8.0	030117	14:53:57	1	1	3	3PP3PPTask.F	26	CHS1.F	2	1	728	1	blank	2	Erica (high status)	2	Erica (high status)	1	+   +	1	+   +	1	+ +	1	+ +	1	+	2	3578.jpg	2	rflgreen-f.png	2	lfrblue-f.png	1	blank
4.0.8.0	030117	14:53:57	1	1	3	3PP3PPTask.F	27	CHS1.F	2	1	613	1	blank	2	Erica (high status)	2	Erica (high status)	1	+   +	1	+   +	1	+ +	1	+ +	1	+	4	1357.jpg	4	rflgreen-f.png	4	lfrblue-f.png	1	blank
4.0.8.0	030117	14:53:57	1	1	3	3PP3PPTask.F	28	CHS2.F	3	1	523	1	blank	2	Erica (high status)	2	Erica (high status)	1	+   +	1	+   +	1	+ +	1	+ +	1	+	4	3568.jpg	4	rflgreen-f.png	4	lfrblue-f.png	1	blank
4.0.8.0	030117	14:53:57	1	1	3	3PP3PPTask.F	29	CLS2.F	3	1	598	1	blank	1	Jenny (low status)	1	Jenny (low status)	1	+   +	1	+   +	1	+ +	1	+ +	1	+	3	3568.jpg	3	rflblue-f.png	3	lfrgreen-f.png	1	blank
4.0.8.0	030117	14:53:57	1	1	3	3PP3PPTask.F	30	CHS1.F	2	1	697	1	blank	2	Erica (high status)	2	Erica (high status)	1	+   +	1	+   +	1	+ +	1	+ +	1	+	8	2357.jpg	8	rflgreen-f.png	8	lfrblue-f.png	1	blank
4.0.8.0	030117	14:53:57	1	1	3	3PP3PPTask.F	31	CLS1.F	2	1	551	1	blank	1	Jenny (low status)	1	Jenny (low status)	1	+   +	1	+   +	1	+ +	1	+ +	1	+	5	3579.jpg	5	rflblue-f.png	5	lfrgreen-f.png	1	blank
4.0.8.0	030117	14:53:57	1	1	3	3PP3PPTask.F	32	CHS2.F	3	1	511	1	blank	2	Erica (high status)	2	Erica (high status)	1	+   +	1	+   +	1	+ +	1	+ +	1	+	6	3567.jpg	6	rflgreen-f.png	6	lfrblue-f.png	1	blank
4.0.8.0	030117	14:53:57	1	1	3	3PP3PPTask.F	33	ILS1.outward.F	2	1	1601	1	blank	1	Jenny (low status)	1	Jenny (low status)	1	+   +	1	+   +	1	+ +	1	+ +	1	+	2	3579.jpg	2	lflblue-f.png	2	rfrgreen-f.png	1	blank
4.0.8.0	030117	14:53:57	1	1	3	3PP3PPTask.F	34	CHS1.F	2	1	532	1	blank	2	Erica (high status)	2	Erica (high status)	1	+   +	1	+   +	1	+ +	1	+ +	1	+	7	2357.jpg	7	rflblue-f.png	7	lfrgreen-f.png	1	blank
4.0.8.0	030117	14:53:57	1	1	3	3PP3PPTask.F	35	IHS1.outward.F	2	1	1626	1	blank	2	Erica (high status)	2	Erica (high status)	1	+   +	1	+   +	1	+ +	1	+ +	1	+	1	2357.jpg	1	lflblue-f.png	1	rfrgreen-f.png	1	blank
4.0.8.0	030117	14:53:57	1	1	3	3PP3PPTask.F	36	CLS1.F	2	1	701	1	blank	1	Jenny (low status)	1	Jenny (low status)	1	+   +	1	+   +	1	+ +	1	+ +	1	+	1	3578.jpg	1	rflblue-f.png	1	lfrgreen-f.png	1	blank
4.0.8.0	030117	14:53:57	1	1	3	3PP3PPTask.F	37	ILS2.outward.F	3	1	1714	1	blank	1	Jenny (low status)	1	Jenny (low status)	1	+   +	1	+   +	1	+ +	1	+ +	1	+	1	2357.jpg	1	lflblue-f.png	1	rfrgreen-f.png	1	blank
4.0.8.0	030117	14:53:57	1	1	3	3PP3PPTask.F	38	IHS2.parallel.leftout.F	3	1	1501	1	blank	2	Erica (high status)	2	Erica (high status)	1	+   +	1	+   +	1	+ +	1	+ +	1	+	1	3567.jpg	1	lflblue-f.png	1	lfrgreen-f.png	1	blank
4.0.8.0	030117	14:53:57	1	1	3	3PP3PPTask.F	39	CLS2.F	3	1	618	1	blank	1	Jenny (low status)	1	Jenny (low status)	1	+   +	1	+   +	1	+ +	1	+ +	1	+	6	3567.jpg	6	rflgreen-f.png	6	lfrblue-f.png	1	blank
4.0.8.0	030117	14:53:57	1	1	3	3PP3PPTask.F	40	CLS1.F	2	1	615	1	blank	1	Jenny (low status)	1	Jenny (low status)	1	+   +	1	+   +	1	+ +	1	+ +	1	+	6	3579.jpg	6	rflgreen-f.png	6	lfrblue-f.png	1	blank
4.0.8.0	030117	14:53:57	1	1	3	3PP3PPTask.F	41	IHS1.outward.F	2	1	2309	1	blank	2	Erica (high status)	2	Erica (high status)	1	+   +	1	+   +	1	+ +	1	+ +	1	+	2	1357.jpg	2	lflblue-f.png	2	rfrgreen-f.png	1	blank
4.0.8.0	030117	14:53:57	1	1	3	3PP3PPTask.F	42	ILS2.parallel.leftin.F	3	1	494	1	blank	1	Jenny (low status)	1	Jenny (low status)	1	+   +	1	+   +	1	+ +	1	+ +	1	+	2	3578.jpg	2	rflgreen-f.png	2	rfrblue-f.png	1	blank
4.0.8.0	030117	14:53:57	1	1	3	3PP3PPTask.F	43	ILS1.outward.F	2	1	848	1	blank	1	Jenny (low status)	1	Jenny (low status)	1	+   +	1	+   +	1	+ +	1	+ +	1	+	1	3589.jpg	1	lflblue-f.png	1	rfrgreen-f.png	1	blank
4.0.8.0	030117	14:53:57	1	1	3	3PP3PPTask.F	44	IHS1.outward.F	2	1	1227	1	blank	2	Erica (high status)	2	Erica (high status)	1	+   +	1	+   +	1	+ +	1	+ +	1	+	3	3589.jpg	3	lflgreen-f.png	3	rfrblue-f.png	1	blank
4.0.8.0	030117	14:53:57	1	1	3	3PP3PPTask.F	45	IHS2.parallel.leftin.F	2	0	1464	1	blank	2	Erica (high status)	2	Erica (high status)	1	+   +	1	+   +	1	+ +	1	+ +	1	+	1	3578.jpg	1	rflblue-f.png	1	rfrgreen-f.png	1	blank
4.0.8.0	030117	14:53:57	1	1	3	3PP3PPTask.F	46	CLS2.F	3	1	469	1	blank	1	Jenny (low status)	1	Jenny (low status)	1	+   +	1	+   +	1	+ +	1	+ +	1	+	1	3457.jpg	1	rflblue-f.png	1	lfrgreen-f.png	1	blank
4.0.8.0	030117	14:53:57	1	1	3	3PP3PPTask.F	47	IHS1.outward.F	2	1	1489	1	blank	2	Erica (high status)	2	Erica (high status)	1	+   +	1	+   +	1	+ +	1	+ +	1	+	4	3579.jpg	4	lflgreen-f.png	4	rfrblue-f.png	1	blank
4.0.8.0	030117	14:53:57	1	1	3	3PP3PPTask.F	48	CLS2.F	3	1	586	1	blank	1	Jenny (low status)	1	Jenny (low status)	1	+   +	1	+   +	1	+ +	1	+ +	1	+	2	3457.jpg	2	rflgreen-f.png	2	lfrblue-f.png	1	blank
4.0.8.0	030117	14:53:57	1	1	3	3PP3PPTask.F	49	ILS1.parallel.leftin.F	2	1	694	1	blank	1	Jenny (low status)	1	Jenny (low status)	1	+   +	1	+   +	1	+ +	1	+ +	1	+	2	2457.jpg	2	rflgreen-f.png	2	rfrblue-f.png	1	blank
4.0.8.0	030117	14:53:57	1	1	3	3PP3PPTask.F	50	CHS1.F	2	1	567	1	blank	2	Erica (high status)	2	Erica (high status)	1	+   +	1	+   +	1	+ +	1	+ +	1	+	6	3579.jpg	6	rflgreen-f.png	6	lfrblue-f.png	1	blank
4.0.8.0	030117	14:53:57	1	1	3	3PP3PPTask.F	51	ILS1.parallel.leftout.F	2	1	1371	1	blank	1	Jenny (low status)	1	Jenny (low status)	1	+   +	1	+   +	1	+ +	1	+ +	1	+	1	3567.jpg	1	lflblue-f.png	1	lfrgreen-f.png	1	blank
4.0.8.0	030117	14:53:57	1	1	3	3PP3PPTask.F	52	CLS1.F	2	1	698	1	blank	1	Jenny (low status)	1	Jenny (low status)	1	+   +	1	+   +	1	+ +	1	+ +	1	+	3	1357.jpg	3	rflblue-f.png	3	lfrgreen-f.png	1	blank
4.0.8.0	030117	14:53:57	1	1	3	3PP3PPTask.F	53	IHS1.outward.F	2	1	1064	1	blank	2	Erica (high status)	2	Erica (high status)	1	+   +	1	+   +	1	+ +	1	+ +	1	+	3	3589.jpg	3	lflgreen-f.png	3	rfrblue-f.png	1	blank
4.0.8.0	030117	14:53:57	1	1	3	3PP3PPTask.F	54	ILS1.outward.F	2	1	485	1	blank	1	Jenny (low status)	1	Jenny (low status)	1	+   +	1	+   +	1	+ +	1	+ +	1	+	3	2357.jpg	3	lflgreen-f.png	3	rfrblue-f.png	1	blank
4.0.8.0	030117	14:53:57	1	1	3	3PP3PPTask.F	55	CHS2.F	3	1	580	1	blank	2	Erica (high status)	2	Erica (high status)	1	+   +	1	+   +	1	+ +	1	+ +	1	+	7	2457.jpg	7	rflblue-f.png	7	lfrgreen-f.png	1	blank
4.0.8.0	030117	14:53:57	1	1	3	3PP3PPTask.F	56	CHS2.F	3	1	479	1	blank	2	Erica (high status)	2	Erica (high status)	1	+   +	1	+   +	1	+ +	1	+ +	1	+	8	2457.jpg	8	rflgreen-f.png	8	lfrblue-f.png	1	blank
4.0.8.0	030117	14:53:57	1	1	3	3PP3PPTask.F	57	CHS1.F	2	1	516	1	blank	2	Erica (high status)	2	Erica (high status)	1	+   +	1	+   +	1	+ +	1	+ +	1	+	4	1357.jpg	4	rflgreen-f.png	4	lfrblue-f.png	1	blank
4.0.8.0	030117	14:53:57	1	1	3	3PP3PPTask.F	58	ILS1.parallel.leftout.F	2	1	871	1	blank	1	Jenny (low status)	1	Jenny (low status)	1	+   +	1	+   +	1	+ +	1	+ +	1	+	1	3567.jpg	1	lflblue-f.png	1	lfrgreen-f.png	1	blank
4.0.8.0	030117	14:53:57	1	1	3	3PP3PPTask.F	59	CLS1.F	2	1	649	1	blank	1	Jenny (low status)	1	Jenny (low status)	1	+   +	1	+   +	1	+ +	1	+ +	1	+	4	1357.jpg	4	rflgreen-f.png	4	lfrblue-f.png	1	blank
4.0.8.0	030117	14:53:57	1	1	3	3PP3PPTask.F	60	CLS2.F	3	1	789	1	blank	1	Jenny (low status)	1	Jenny (low status)	1	+   +	1	+   +	1	+ +	1	+ +	1	+	4	3568.jpg	4	rflgreen-f.png	4	lfrblue-f.png	1	blank
4.0.8.0	030117	14:53:57	1	1	3	3PP3PPTask.F	61	CLS2.F	3	1	721	1	blank	1	Jenny (low status)	1	Jenny (low status)	1	+   +	1	+   +	1	+ +	1	+ +	1	+	7	2457.jpg	7	rflblue-f.png	7	lfrgreen-f.png	1	blank
4.0.8.0	030117	14:53:57	1	1	3	3PP3PPTask.F	62	CLS2.F	3	1	736	1	blank	1	Jenny (low status)	1	Jenny (low status)	1	+   +	1	+   +	1	+ +	1	+ +	1	+	8	2457.jpg	8	rflgreen-f.png	8	lfrblue-f.png	1	blank
4.0.8.0	030117	14:53:57	1	1	3	3PP3PPTask.F	63	IHS1.outward.F	2	1	1629	1	blank	2	Erica (high status)	2	Erica (high status)	1	+   +	1	+   +	1	+ +	1	+ +	1	+	1	2357.jpg	1	lflblue-f.png	1	rfrgreen-f.png	1	blank
4.0.8.0	030117	14:53:57	1	1	3	3PP3PPTask.F	64	CHS2.F	3	1	716	1	blank	2	Erica (high status)	2	Erica (high status)	1	+   +	1	+   +	1	+ +	1	+ +	1	+	7	2457.jpg	7	rflblue-f.png	7	lfrgreen-f.png	1	blank
4.0.8.0	030117	14:53:57	1	1	3	3PP3PPTask.F	65	ILS2.parallel.leftin.F	3	1	1298	1	blank	1	Jenny (low status)	1	Jenny (low status)	1	+   +	1	+   +	1	+ +	1	+ +	1	+	1	3568.jpg	1	rflblue-f.png	1	rfrgreen-f.png	1	blank
4.0.8.0	030117	14:53:57	1	1	3	3PP3PPTask.F	66	IHS1.parallel.leftin.F	2	1	1343	1	blank	2	Erica (high status)	2	Erica (high status)	1	+   +	1	+   +	1	+ +	1	+ +	1	+	2	3578.jpg	2	rflgreen-f.png	2	rfrblue-f.png	1	blank
4.0.8.0	030117	14:53:57	1	1	3	3PP3PPTask.F	67	ILS1.outward.F	2	1	690	1	blank	1	Jenny (low status)	1	Jenny (low status)	1	+   +	1	+   +	1	+ +	1	+ +	1	+	4	1357.jpg	4	lflgreen-f.png	4	rfrblue-f.png	1	blank
4.0.8.0	030117	14:53:57	1	1	3	3PP3PPTask.F	68	CLS2.F	3	1	570	1	blank	1	Jenny (low status)	1	Jenny (low status)	1	+   +	1	+   +	1	+ +	1	+ +	1	+	3	3568.jpg	3	rflblue-f.png	3	lfrgreen-f.png	1	blank
4.0.8.0	030117	14:53:57	1	1	3	3PP3PPTask.F	69	IHS2.outward.F	3	1	2027	1	blank	2	Erica (high status)	2	Erica (high status)	1	+   +	1	+   +	1	+ +	1	+ +	1	+	3	2357.jpg	3	lflgreen-f.png	3	rfrblue-f.png	1	blank
4.0.8.0	030117	14:53:57	1	1	3	3PP3PPTask.F	70	CLS1.F	2	1	1066	1	blank	1	Jenny (low status)	1	Jenny (low status)	1	+   +	1	+   +	1	+ +	1	+ +	1	+	2	3578.jpg	2	rflgreen-f.png	2	lfrblue-f.png	1	blank
4.0.8.0	030117	14:53:57	1	1	3	3PP3PPTask.F	71	IHS2.parallel.leftin.F	3	1	1408	1	blank	2	Erica (high status)	2	Erica (high status)	1	+   +	1	+   +	1	+ +	1	+ +	1	+	2	2457.jpg	2	rflgreen-f.png	2	rfrblue-f.png	1	blank
4.0.8.0	030117	14:53:57	1	1	3	3PP3PPTask.F	72	CLS2.F	3	1	886	1	blank	1	Jenny (low status)	1	Jenny (low status)	1	+   +	1	+   +	1	+ +	1	+ +	1	+	6	3567.jpg	6	rflgreen-f.png	6	lfrblue-f.png	1	blank
4.0.8.0	030117	14:53:57	1	1	3	3PP3PPTask.F	73	ILS1.parallel.leftout.F	2	1	1017	1	blank	1	Jenny (low status)	1	Jenny (low status)	1	+   +	1	+   +	1	+ +	1	+ +	1	+	2	2358.jpg	2	lflgreen-f.png	2	lfrblue-f.png	1	blank
4.0.8.0	030117	14:53:57	1	1	3	3PP3PPTask.F	74	CLS1.F	2	1	958	1	blank	1	Jenny (low status)	1	Jenny (low status)	1	+   +	1	+   +	1	+ +	1	+ +	1	+	2	3578.jpg	2	rflgreen-f.png	2	lfrblue-f.png	1	blank
4.0.8.0	030117	14:53:57	1	1	3	3PP3PPTask.F	75	IHS1.outward.F	2	1	678	1	blank	2	Erica (high status)	2	Erica (high status)	1	+   +	1	+   +	1	+ +	1	+ +	1	+	2	1357.jpg	2	lflblue-f.png	2	rfrgreen-f.png	1	blank
4.0.8.0	030117	14:53:57	1	1	3	3PP3PPTask.F	76	IHS2.outward.F	3	1	580	1	blank	2	Erica (high status)	2	Erica (high status)	1	+   +	1	+   +	1	+ +	1	+ +	1	+	4	1357.jpg	4	lflgreen-f.png	4	rfrblue-f.png	1	blank
4.0.8.0	030117	14:53:57	1	1	3	3PP3PPTask.F	77	CLS2.F	3	1	560	1	blank	1	Jenny (low status)	1	Jenny (low status)	1	+   +	1	+   +	1	+ +	1	+ +	1	+	7	2457.jpg	7	rflblue-f.png	7	lfrgreen-f.png	1	blank
4.0.8.0	030117	14:53:57	1	1	3	3PP3PPTask.F	78	ILS2.parallel.leftin.F	3	1	943	1	blank	1	Jenny (low status)	1	Jenny (low status)	1	+   +	1	+   +	1	+ +	1	+ +	1	+	2	3578.jpg	2	rflgreen-f.png	2	rfrblue-f.png	1	blank
4.0.8.0	030117	14:53:57	1	1	3	3PP3PPTask.F	79	IHS2.outward.F	3	1	1793	1	blank	2	Erica (high status)	2	Erica (high status)	1	+   +	1	+   +	1	+ +	1	+ +	1	+	2	3579.jpg	2	lflblue-f.png	2	rfrgreen-f.png	1	blank
4.0.8.0	030117	14:53:57	1	1	3	3PP3PPTask.F	80	CHS2.F	3	1	750	1	blank	2	Erica (high status)	2	Erica (high status)	1	+   +	1	+   +	1	+ +	1	+ +	1	+	2	3457.jpg	2	rflgreen-f.png	2	lfrblue-f.png	1	blank
4.0.8.0	030117	14:53:57	1	1	3	3PP3PPTask.F	81	CLS1.F	2	1	735	1	blank	1	Jenny (low status)	1	Jenny (low status)	1	+   +	1	+   +	1	+ +	1	+ +	1	+	6	3579.jpg	6	rflgreen-f.png	6	lfrblue-f.png	1	blank
4.0.8.0	030117	14:53:57	1	1	3	3PP3PPTask.F	82	CLS2.F	3	1	608	1	blank	1	Jenny (low status)	1	Jenny (low status)	1	+   +	1	+   +	1	+ +	1	+ +	1	+	5	3567.jpg	5	rflblue-f.png	5	lfrgreen-f.png	1	blank
4.0.8.0	030117	14:53:57	1	1	3	3PP3PPTask.F	83	IHS2.outward.F	2	0	1122	1	blank	2	Erica (high status)	2	Erica (high status)	1	+   +	1	+   +	1	+ +	1	+ +	1	+	2	3579.jpg	2	lflblue-f.png	2	rfrgreen-f.png	1	blank
4.0.8.0	030117	14:53:57	1	1	3	3PP3PPTask.F	84	IHS2.parallel.leftout.F	3	1	599	1	blank	2	Erica (high status)	2	Erica (high status)	1	+   +	1	+   +	1	+ +	1	+ +	1	+	2	2358.jpg	2	lflgreen-f.png	2	lfrblue-f.png	1	blank
4.0.8.0	030117	14:53:57	1	1	3	3PP3PPTask.F	85	ILS2.outward.F	3	1	513	1	blank	1	Jenny (low status)	1	Jenny (low status)	1	+   +	1	+   +	1	+ +	1	+ +	1	+	3	3589.jpg	3	lflgreen-f.png	3	rfrblue-f.png	1	blank
4.0.8.0	030117	14:53:57	1	1	3	3PP3PPTask.F	86	CLS1.F	2	1	746	1	blank	1	Jenny (low status)	1	Jenny (low status)	1	+   +	1	+   +	1	+ +	1	+ +	1	+	7	2357.jpg	7	rflblue-f.png	7	lfrgreen-f.png	1	blank
4.0.8.0	030117	14:53:57	1	1	3	3PP3PPTask.F	87	ILS2.outward.F	3	1	701	1	blank	1	Jenny (low status)	1	Jenny (low status)	1	+   +	1	+   +	1	+ +	1	+ +	1	+	4	3579.jpg	4	lflgreen-f.png	4	rfrblue-f.png	1	blank
4.0.8.0	030117	14:53:57	1	1	3	3PP3PPTask.F	88	IHS2.parallel.leftout.F	3	1	947	1	blank	2	Erica (high status)	2	Erica (high status)	1	+   +	1	+   +	1	+ +	1	+ +	1	+	1	3567.jpg	1	lflblue-f.png	1	lfrgreen-f.png	1	blank
4.0.8.0	030117	14:53:57	1	1	3	3PP3PPTask.F	89	IHS1.parallel.leftin.F	2	1	1559	1	blank	2	Erica (high status)	2	Erica (high status)	1	+   +	1	+   +	1	+ +	1	+ +	1	+	1	2457.jpg	1	rflblue-f.png	1	rfrgreen-f.png	1	blank
4.0.8.0	030117	14:53:57	1	1	3	3PP3PPTask.F	90	CLS1.F	2	1	671	1	blank	1	Jenny (low status)	1	Jenny (low status)	1	+   +	1	+   +	1	+ +	1	+ +	1	+	8	2357.jpg	8	rflgreen-f.png	8	lfrblue-f.png	1	blank
4.0.8.0	030117	14:53:57	1	1	3	3PP3PPTask.F	91	CLS2.F	3	1	690	1	blank	1	Jenny (low status)	1	Jenny (low status)	1	+   +	1	+   +	1	+ +	1	+ +	1	+	8	2457.jpg	8	rflgreen-f.png	8	lfrblue-f.png	1	blank
4.0.8.0	030117	14:53:57	1	1	3	3PP3PPTask.F	92	IHS1.parallel.leftin.F	2	1	1065	1	blank	2	Erica (high status)	2	Erica (high status)	1	+   +	1	+   +	1	+ +	1	+ +	1	+	1	2457.jpg	1	rflblue-f.png	1	rfrgreen-f.png	1	blank
4.0.8.0	030117	14:53:57	1	1	3	3PP3PPTask.F	93	CHS2.F	3	1	652	1	blank	2	Erica (high status)	2	Erica (high status)	1	+   +	1	+   +	1	+ +	1	+ +	1	+	5	3567.jpg	5	rflblue-f.png	5	lfrgreen-f.png	1	blank
4.0.8.0	030117	14:53:57	1	1	3	3PP3PPTask.F	94	CLS1.F	2	1	652	1	blank	1	Jenny (low status)	1	Jenny (low status)	1	+   +	1	+   +	1	+ +	1	+ +	1	+	1	3578.jpg	1	rflblue-f.png	1	lfrgreen-f.png	1	blank
4.0.8.0	030117	14:53:57	1	1	3	3PP3PPTask.F	95	IHS2.outward.F	3	1	1360	1	blank	2	Erica (high status)	2	Erica (high status)	1	+   +	1	+   +	1	+ +	1	+ +	1	+	4	1357.jpg	4	lflgreen-f.png	4	rfrblue-f.png	1	blank
4.0.8.0	030117	14:53:57	1	1	3	3PP3PPTask.F	96	ILS1.parallel.leftin.F	2	1	2035	1	blank	1	Jenny (low status)	1	Jenny (low status)	1	+   +	1	+   +	1	+ +	1	+ +	1	+	1	3578.jpg	1	rflblue-f.png	1	rfrgreen-f.png	1	blank
4.0.8.0	030117	14:53:57	1	1	3	3PP3PPTask.F	97	IHS1.parallel.leftout.F	2	1	1058	1	blank	2	Erica (high status)	2	Erica (high status)	1	+   +	1	+   +	1	+ +	1	+ +	1	+	2	3567.jpg	2	lflgreen-f.png	2	lfrblue-f.png	1	blank
4.0.8.0	030117	14:53:57	1	1	3	3PP3PPTask.F	98	CHS1.F	2	1	1096	1	blank	2	Erica (high status)	2	Erica (high status)	1	+   +	1	+   +	1	+ +	1	+ +	1	+	2	3578.jpg	2	rflgreen-f.png	2	lfrblue-f.png	1	blank
4.0.8.0	030117	14:53:57	1	1	3	3PP3PPTask.F	99	IHS2.parallel.leftin.F	3	1	1197	1	blank	2	Erica (high status)	2	Erica (high status)	1	+   +	1	+   +	1	+ +	1	+ +	1	+	1	3578.jpg	1	rflblue-f.png	1	rfrgreen-f.png	1	blank
4.0.8.0	030117	14:53:57	1	1	3	3PP3PPTask.F	100	CHS1.F	2	1	781	1	blank	2	Erica (high status)	2	Erica (high status)	1	+   +	1	+   +	1	+ +	1	+ +	1	+	8	2357.jpg	8	rflgreen-f.png	8	lfrblue-f.png	1	blank
4.0.8.0	030117	14:53:57	1	1	3	3PP3PPTask.F	101	CHS2.F	3	1	616	1	blank	2	Erica (high status)	2	Erica (high status)	1	+   +	1	+   +	1	+ +	1	+ +	1	+	6	3567.jpg	6	rflgreen-f.png	6	lfrblue-f.png	1	blank
4.0.8.0	030117	14:53:57	1	1	3	3PP3PPTask.F	102	CHS1.F	2	1	627	1	blank	2	Erica (high status)	2	Erica (high status)	1	+   +	1	+   +	1	+ +	1	+ +	1	+	7	2357.jpg	7	rflblue-f.png	7	lfrgreen-f.png	1	blank
4.0.8.0	030117	14:53:57	1	1	3	3PP3PPTask.F	103	CHS1.F	2	1	514	1	blank	2	Erica (high status)	2	Erica (high status)	1	+   +	1	+   +	1	+ +	1	+ +	1	+	5	3579.jpg	5	rflblue-f.png	5	lfrgreen-f.png	1	blank
4.0.8.0	030117	14:53:57	1	1	3	3PP3PPTask.F	104	ILS2.outward.F	3	1	803	1	blank	1	Jenny (low status)	1	Jenny (low status)	1	+   +	1	+   +	1	+ +	1	+ +	1	+	2	1357.jpg	2	lflblue-f.png	2	rfrgreen-f.png	1	blank
4.0.8.0	030117	14:53:57	1	1	3	3PP3PPTask.F	105	IHS2.outward.F	3	1	1386	1	blank	2	Erica (high status)	2	Erica (high status)	1	+   +	1	+   +	1	+ +	1	+ +	1	+	1	3589.jpg	1	lflblue-f.png	1	rfrgreen-f.png	1	blank
4.0.8.0	030117	14:53:57	1	1	3	3PP3PPTask.F	106	CHS2.F	3	1	927	1	blank	2	Erica (high status)	2	Erica (high status)	1	+   +	1	+   +	1	+ +	1	+ +	1	+	4	3568.jpg	4	rflgreen-f.png	4	lfrblue-f.png	1	blank
4.0.8.0	030117	14:53:57	1	1	3	3PP3PPTask.F	107	IHS2.outward.F	3	1	1648	1	blank	2	Erica (high status)	2	Erica (high status)	1	+   +	1	+   +	1	+ +	1	+ +	1	+	3	2357.jpg	3	lflgreen-f.png	3	rfrblue-f.png	1	blank
4.0.8.0	030117	14:53:57	1	1	3	3PP3PPTask.F	108	CHS1.F	2	1	976	1	blank	2	Erica (high status)	2	Erica (high status)	1	+   +	1	+   +	1	+ +	1	+ +	1	+	1	3578.jpg	1	rflblue-f.png	1	lfrgreen-f.png	1	blank
4.0.8.0	030117	14:53:57	1	1	3	3PP3PPTask.F	109	CLS1.F	2	1	576	1	blank	1	Jenny (low status)	1	Jenny (low status)	1	+   +	1	+   +	1	+ +	1	+ +	1	+	5	3579.jpg	5	rflblue-f.png	5	lfrgreen-f.png	1	blank
4.0.8.0	030117	14:53:57	1	1	3	3PP3PPTask.F	110	IHS2.parallel.leftin.F	3	1	1365	1	blank	2	Erica (high status)	2	Erica (high status)	1	+   +	1	+   +	1	+ +	1	+ +	1	+	2	2457.jpg	2	rflgreen-f.png	2	rfrblue-f.png	1	blank
4.0.8.0	030117	14:53:57	1	1	3	3PP3PPTask.F	111	CHS2.F	3	1	652	1	blank	2	Erica (high status)	2	Erica (high status)	1	+   +	1	+   +	1	+ +	1	+ +	1	+	1	3457.jpg	1	rflblue-f.png	1	lfrgreen-f.png	1	blank
4.0.8.0	030117	14:53:57	1	1	3	3PP3PPTask.F	112	CLS1.F	2	1	586	1	blank	1	Jenny (low status)	1	Jenny (low status)	1	+   +	1	+   +	1	+ +	1	+ +	1	+	3	1357.jpg	3	rflblue-f.png	3	lfrgreen-f.png	1	blank
4.0.8.0	030117	14:53:57	1	1	3	3PP3PPTask.F	113	IHS1.outward.F	2	1	1069	1	blank	2	Erica (high status)	2	Erica (high status)	1	+   +	1	+   +	1	+ +	1	+ +	1	+	4	3579.jpg	4	lflgreen-f.png	4	rfrblue-f.png	1	blank
4.0.8.0	030117	14:53:57	1	1	3	3PP3PPTask.F	114	CLS2.F	3	1	428	1	blank	1	Jenny (low status)	1	Jenny (low status)	1	+   +	1	+   +	1	+ +	1	+ +	1	+	1	3457.jpg	1	rflblue-f.png	1	lfrgreen-f.png	1	blank
4.0.8.0	030117	14:53:57	1	1	3	3PP3PPTask.F	115	ILS1.outward.F	2	1	856	1	blank	1	Jenny (low status)	1	Jenny (low status)	1	+   +	1	+   +	1	+ +	1	+ +	1	+	2	3579.jpg	2	lflblue-f.png	2	rfrgreen-f.png	1	blank
4.0.8.0	030117	14:53:57	1	1	3	3PP3PPTask.F	116	ILS2.parallel.leftout.F	3	1	732	1	blank	1	Jenny (low status)	1	Jenny (low status)	1	+   +	1	+   +	1	+ +	1	+ +	1	+	1	2358.jpg	1	lflblue-f.png	1	lfrgreen-f.png	1	blank
4.0.8.0	030117	14:53:57	1	1	3	3PP3PPTask.F	117	ILS1.parallel.leftin.F	2	1	591	1	blank	1	Jenny (low status)	1	Jenny (low status)	1	+   +	1	+   +	1	+ +	1	+ +	1	+	1	3578.jpg	1	rflblue-f.png	1	rfrgreen-f.png	1	blank
4.0.8.0	030117	14:53:57	1	1	3	3PP3PPTask.F	118	ILS1.outward.F	2	1	1416	1	blank	1	Jenny (low status)	1	Jenny (low status)	1	+   +	1	+   +	1	+ +	1	+ +	1	+	4	1357.jpg	4	lflgreen-f.png	4	rfrblue-f.png	1	blank
4.0.8.0	030117	14:53:57	1	1	3	3PP3PPTask.F	119	ILS1.outward.F	2	1	658	1	blank	1	Jenny (low status)	1	Jenny (low status)	1	+   +	1	+   +	1	+ +	1	+ +	1	+	1	3589.jpg	1	lflblue-f.png	1	rfrgreen-f.png	1	blank
4.0.8.0	030117	14:53:57	1	1	3	3PP3PPTask.F	120	CLS1.F	2	1	790	1	blank	1	Jenny (low status)	1	Jenny (low status)	1	+   +	1	+   +	1	+ +	1	+ +	1	+	4	1357.jpg	4	rflgreen-f.png	4	lfrblue-f.png	1	blank
4.0.8.0	030117	14:53:57	1	1	3	3PP3PPTask.F	121	IHS1.parallel.leftout.F	2	1	1697	1	blank	2	Erica (high status)	2	Erica (high status)	1	+   +	1	+   +	1	+ +	1	+ +	1	+	1	2358.jpg	1	lflblue-f.png	1	lfrgreen-f.png	1	blank
4.0.8.0	030117	14:53:57	1	1	3	3PP3PPTask.F	122	IHS1.parallel.leftin.F	3	0	4790	1	blank	2	Erica (high status)	2	Erica (high status)	1	+   +	1	+   +	1	+ +	1	+ +	1	+	2	3578.jpg	2	rflgreen-f.png	2	rfrblue-f.png	1	blank
4.0.8.0	030117	14:53:57	1	1	3	3PP3PPTask.F	123	ILS1.parallel.leftin.F	2	1	1551	1	blank	1	Jenny (low status)	1	Jenny (low status)	1	+   +	1	+   +	1	+ +	1	+ +	1	+	2	2457.jpg	2	rflgreen-f.png	2	rfrblue-f.png	1	blank
4.0.8.0	030117	14:53:57	1	1	3	3PP3PPTask.F	124	CHS2.F	3	1	914	1	blank	2	Erica (high status)	2	Erica (high status)	1	+   +	1	+   +	1	+ +	1	+ +	1	+	3	3568.jpg	3	rflblue-f.png	3	lfrgreen-f.png	1	blank
4.0.8.0	030117	14:53:57	1	1	3	3PP3PPTask.F	125	CHS1.F	2	1	1066	1	blank	2	Erica (high status)	2	Erica (high status)	1	+   +	1	+   +	1	+ +	1	+ +	1	+	6	3579.jpg	6	rflgreen-f.png	6	lfrblue-f.png	1	blank
4.0.8.0	030117	14:53:57	1	1	3	3PP3PPTask.F	126	CLS2.F	3	1	1034	1	blank	1	Jenny (low status)	1	Jenny (low status)	1	+   +	1	+   +	1	+ +	1	+ +	1	+	2	3457.jpg	2	rflgreen-f.png	2	lfrblue-f.png	1	blank
4.0.8.0	030117	14:53:57	1	1	3	3PP3PPTask.F	127	ILS1.outward.F	3	0	1273	1	blank	1	Jenny (low status)	1	Jenny (low status)	1	+   +	1	+   +	1	+ +	1	+ +	1	+	3	2357.jpg	3	lflgreen-f.png	3	rfrblue-f.png	1	blank
4.0.8.0	030117	14:53:57	1	1	3	3PP3PPTask.F	128	IHS1.parallel.leftout.F	2	1	1223	1	blank	2	Erica (high status)	2	Erica (high status)	1	+   +	1	+   +	1	+ +	1	+ +	1	+	2	3567.jpg	2	lflgreen-f.png	2	lfrblue-f.png	1	blank
4.0.8.0	030117	14:53:57	1	1	3	3PP3PPTask.F	129	ILS2.parallel.leftout.F	3	1	1493	1	blank	1	Jenny (low status)	1	Jenny (low status)	1	+   +	1	+   +	1	+ +	1	+ +	1	+	2	3457.jpg	2	lflgreen-f.png	2	lfrblue-f.png	1	blank
4.0.8.0	030117	14:53:57	1	1	3	3PP3PPTask.F	130	CLS2.F	3	1	878	1	blank	1	Jenny (low status)	1	Jenny (low status)	1	+   +	1	+   +	1	+ +	1	+ +	1	+	4	3568.jpg	4	rflgreen-f.png	4	lfrblue-f.png	1	blank
4.0.8.0	030117	14:53:57	1	1	3	3PP3PPTask.F	131	CHS1.F	2	1	768	1	blank	2	Erica (high status)	2	Erica (high status)	1	+   +	1	+   +	1	+ +	1	+ +	1	+	3	1357.jpg	3	rflblue-f.png	3	lfrgreen-f.png	1	blank
4.0.8.0	030117	14:53:57	1	1	3	3PP3PPTask.F	132	finish	57	0	2868	1	Thank you for completing the perspective-taking task.    Please write down this code: 280186    When you have done so, you may close out of this program and return to the browser tab containing the survey that directed you here.  In order to continue with the survey, you will be asked to enter the above code.  Please note that this is NOT your MTurk completion code.  You will receive your MTurk completion code after finishing the survey.    To exit this program, please press space bar.	0	0	0	0	0	0	0	0	0	0	0	0	0	0	0	0	0	0	0	0	0	0
