build	date	time	subject	group	blocknum	blockcode	trialnum	trialcode	response	correct	latency	stimulusnumber1	stimulusitem1	stimulusnumber2	stimulusitem2	stimulusnumber3	stimulusitem3	stimulusnumber4	stimulusitem4	stimulusnumber5	stimulusitem5	stimulusnumber6	stimulusitem6	stimulusnumber7	stimulusitem7	stimulusnumber8	stimulusitem8	stimulusnumber9	stimulusitem9	stimulusnumber10	stimulusitem10	stimulusnumber11	stimulusitem11	stimulusnumber12	stimulusitem12
4.0.8.0	030117	14:36:05	3	1	2	3PP3PPTaskInstructions.M	1	instruct1.M	57	1	1494	1	PERSPECTIVES TASK     Thank you for your participation thusfar.    You will now complete a series of tasks that require you to view a three dimensional (3D) space from different perspectives.	1	Please press space bar to continue.	1	blankav.png	0	0	0	0	0	0	0	0	0	0	0	0	0	0	0	0	0	0
4.0.8.0	030117	14:36:05	3	1	2	3PP3PPTaskInstructions.M	2	instruct1.M	57	1	1323	2	On each trial, you will view a 3D environment with the avatars representing James (mall janitor) and Eric (mall director).    Opposite the two avatars on the far wall of the 3D space, you will see a total of four dots.  You will also see some visual barriers perpendicular to the back wall.	2	Please press space bar to see an example of this 3D space.	2	blankav.png	0	0	0	0	0	0	0	0	0	0	0	0	0	0	0	0	0	0
4.0.8.0	030117	14:36:05	3	1	2	3PP3PPTaskInstructions.M	3	instruct1.M	3	0	3120	3	3D SPACE EXAMPLE, PART 1:    Note that the avatar on the left can only see the two dots in the middle; the dots on the far left and far right are obscured by the barriers.  Remember that avatars can only ever see dots in the direction that they are facing.	3	How many dots can the avatar on the right see?  Press 1 or 2.	3	example-m.jpg	0	0	0	0	0	0	0	0	0	0	0	0	0	0	0	0	0	0
4.0.8.0	030117	14:36:05	3	1	2	3PP3PPTaskInstructions.M	4	instruct1.M	57	1	2629	4	Let's get some more practice taking perspectives in this 3D environment.    In the next few slides, we will present you with just one avatar within the 3D environment. All you need to do is indicate how many dots that avatar can see by pressing the 1 or 2 key on your keyboard.	4	Please press space bar to continue.	4	blankav.png	0	0	0	0	0	0	0	0	0	0	0	0	0	0	0	0	0	0
4.0.8.0	030117	14:36:05	3	1	2	3PP3PPTaskInstructions.M	5	instruct1.M	57	1	1615	5	Remember: Even though you personally can see all the dots, the avatars can see dots on only one side of any given barrier--including the barrier on their own side.	5	Please press space bar to continue.	5	blankav.png	0	0	0	0	0	0	0	0	0	0	0	0	0	0	0	0	0	0
4.0.8.0	030117	14:36:05	3	1	2	3PP3PPTaskInstructions.M	6	introtask.HS.M	3	1	514	1	+   +	1	+   +	1	+ +	1	+ +	1	+	5	3457.jpg	5	rflblue-m.png	5	blankav.png	0	0	0	0	0	0	0	0
4.0.8.0	030117	14:36:05	3	1	2	3PP3PPTaskInstructions.M	7	introtask.LS.M	3	1	475	1	+   +	1	+   +	1	+ +	1	+ +	1	+	7	3568.jpg	7	rflgreen-m.png	7	blankav.png	0	0	0	0	0	0	0	0
4.0.8.0	030117	14:36:05	3	1	2	3PP3PPTaskInstructions.M	8	introtask.LS.M	2	1	354	1	+   +	1	+   +	1	+ +	1	+ +	1	+	9	3579.jpg	9	rflgreen-m.png	9	blankav.png	0	0	0	0	0	0	0	0
4.0.8.0	030117	14:36:05	3	1	2	3PP3PPTaskInstructions.M	9	introtask.LS.M	3	0	364	1	+   +	1	+   +	1	+ +	1	+ +	1	+	1	1357.jpg	1	rflgreen-m.png	1	blankav.png	1	Incorrect:   Remember that avatars can see only dots in the area they are facing; they see only one side of their nearest barrier.  Pay close attention to the direction the avatar is facing.	0	0	0	0	0	0
4.0.8.0	030117	14:36:05	3	1	2	3PP3PPTaskInstructions.M	10	introtask.HS.M	3	1	453	1	+   +	1	+   +	1	+ +	1	+ +	1	+	7	3568.jpg	7	rflblue-m.png	7	blankav.png	0	0	0	0	0	0	0	0
4.0.8.0	030117	14:36:05	3	1	2	3PP3PPTaskInstructions.M	11	introtask.HS.M	2	1	369	1	+   +	1	+   +	1	+ +	1	+ +	1	+	8	3578.jpg	8	blankav.png	8	lfrblue-m.png	0	0	0	0	0	0	0	0
4.0.8.0	030117	14:36:05	3	1	2	3PP3PPTaskInstructions.M	12	introtask.HS.M	2	1	404	1	+   +	1	+   +	1	+ +	1	+ +	1	+	2	2357.jpg	2	blankav.png	2	lfrblue-m.png	0	0	0	0	0	0	0	0
4.0.8.0	030117	14:36:05	3	1	2	3PP3PPTaskInstructions.M	13	introtask.HS.M	2	1	304	1	+   +	1	+   +	1	+ +	1	+ +	1	+	1	1357.jpg	1	rflblue-m.png	1	blankav.png	0	0	0	0	0	0	0	0
4.0.8.0	030117	14:36:05	3	1	2	3PP3PPTaskInstructions.M	14	introtask.HS.M	2	1	308	1	+   +	1	+   +	1	+ +	1	+ +	1	+	3	2358.jpg	3	rflblue-m.png	3	blankav.png	0	0	0	0	0	0	0	0
4.0.8.0	030117	14:36:05	3	1	2	3PP3PPTaskInstructions.M	15	introtask.LS.M	2	1	460	1	+   +	1	+   +	1	+ +	1	+ +	1	+	2	2357.jpg	2	blankav.png	2	lfrgreen-m.png	0	0	0	0	0	0	0	0
4.0.8.0	030117	14:36:05	3	1	2	3PP3PPTaskInstructions.M	16	introtask.HS.M	3	1	407	1	+   +	1	+   +	1	+ +	1	+ +	1	+	4	2457.jpg	4	blankav.png	4	lfrblue-m.png	0	0	0	0	0	0	0	0
4.0.8.0	030117	14:36:05	3	1	2	3PP3PPTaskInstructions.M	17	introtask.LS.M	2	1	441	1	+   +	1	+   +	1	+ +	1	+ +	1	+	10	3589.jpg	10	blankav.png	10	lfrgreen-m.png	0	0	0	0	0	0	0	0
4.0.8.0	030117	14:36:05	3	1	2	3PP3PPTaskInstructions.M	18	introtask.LS.M	2	1	360	1	+   +	1	+   +	1	+ +	1	+ +	1	+	8	3578.jpg	8	blankav.png	8	lfrgreen-m.png	0	0	0	0	0	0	0	0
4.0.8.0	030117	14:36:05	3	1	2	3PP3PPTaskInstructions.M	19	introtask.HS.M	2	1	368	1	+   +	1	+   +	1	+ +	1	+ +	1	+	10	3589.jpg	10	blankav.png	10	lfrblue-m.png	0	0	0	0	0	0	0	0
4.0.8.0	030117	14:36:05	3	1	2	3PP3PPTaskInstructions.M	20	introtask.HS.M	2	1	408	1	+   +	1	+   +	1	+ +	1	+ +	1	+	9	3579.jpg	9	rflblue-m.png	9	blankav.png	0	0	0	0	0	0	0	0
4.0.8.0	030117	14:36:05	3	1	2	3PP3PPTaskInstructions.M	21	introtask.LS.M	3	1	434	1	+   +	1	+   +	1	+ +	1	+ +	1	+	5	3457.jpg	5	rflgreen-m.png	5	blankav.png	0	0	0	0	0	0	0	0
4.0.8.0	030117	14:36:05	3	1	2	3PP3PPTaskInstructions.M	22	introtask.HS.M	3	1	413	1	+   +	1	+   +	1	+ +	1	+ +	1	+	6	3567.jpg	6	blankav.png	6	lfrblue-m.png	0	0	0	0	0	0	0	0
4.0.8.0	030117	14:36:05	3	1	2	3PP3PPTaskInstructions.M	23	introtask.LS.M	2	1	374	1	+   +	1	+   +	1	+ +	1	+ +	1	+	3	2358.jpg	3	rflgreen-m.png	3	blankav.png	0	0	0	0	0	0	0	0
4.0.8.0	030117	14:36:05	3	1	2	3PP3PPTaskInstructions.M	24	introtask.LS.M	3	1	503	1	+   +	1	+   +	1	+ +	1	+ +	1	+	4	2457.jpg	4	blankav.png	4	lfrgreen-m.png	0	0	0	0	0	0	0	0
4.0.8.0	030117	14:36:05	3	1	2	3PP3PPTaskInstructions.M	25	introtask.LS.M	2	0	414	1	+   +	1	+   +	1	+ +	1	+ +	1	+	6	3567.jpg	6	blankav.png	6	lfrgreen-m.png	1	Incorrect:   Remember that avatars can see only dots in the area they are facing; they see only one side of their nearest barrier.  Pay close attention to the direction the avatar is facing.	0	0	0	0	0	0
4.0.8.0	030117	14:36:05	3	1	2	3PP3PPTaskInstructions.M	26	instruct2	57	1	1458	1	Now that you're familiar with the 3D environment, let's continue to a slightly more difficult task.    Before viewing the 3D environment on each trial, you will see a brief prompt. The prompt will indicate which target's perspective you will be taking in that trial.    Your task is to determine how many dots the prompted avatar can see.	1	Please press space bar to continue.	0	0	0	0	0	0	0	0	0	0	0	0	0	0	0	0	0	0	0	0
4.0.8.0	030117	14:36:05	3	1	2	3PP3PPTaskInstructions.M	27	instruct2	57	1	7359	2	TRIAL EXAMPLE:    The prompt says you should take James's (mall janitor, green avatar) perspective. In the 3D space that follows, James's avatar sees exactly two dots. In this case, you would respond by pressing the 2 key.    If the prompted perspective sees just one dot, then you would press the 1 key instead.	2	Please press space bar to continue.	0	0	0	0	0	0	0	0	0	0	0	0	0	0	0	0	0	0	0	0
4.0.8.0	030117	14:36:05	3	1	2	3PP3PPTaskInstructions.M	28	instruct2	57	1	2215	3	KEYBOARD USE:    If the prompted avatar sees one dot, press the 1 key.  If the prompted avatar sees two dots, press the 2 key.	3	Please press space bar to continue.	0	0	0	0	0	0	0	0	0	0	0	0	0	0	0	0	0	0	0	0
4.0.8.0	030117	14:36:05	3	1	2	3PP3PPTaskInstructions.M	29	instruct2	2	1	2169	4	FINGER PLACEMENT:     Because the 1 and the 2 keys are so close, we ask that you use your right hand only. Please place your right pointer finger over the 1 key and your right middle finger over the 2 key.    You may find it easier to use the 1 and 2 keys on your keyboard's number pad, if available.	4	Please press the 1 key to continue.	0	0	0	0	0	0	0	0	0	0	0	0	0	0	0	0	0	0	0	0
4.0.8.0	030117	14:36:05	3	1	2	3PP3PPTaskInstructions.M	30	instruct2	3	1	1685	5	For the following practice trials, we encourage you complete the trials as quickly and accurately as possible.	5	Please press the 2 key when you are ready to begin.	0	0	0	0	0	0	0	0	0	0	0	0	0	0	0	0	0	0	0	0
4.0.8.0	030117	14:36:05	3	1	3	3PP3PPTaskPractice.M	1	CLS2.M	3	1	2097	1	blank	1	James	1	James	1	+   +	1	+   +	1	+ +	1	+ +	1	+	7	2457.jpg	7	rflgreen-m.png	7	lfrblue-m.png	1	blank
4.0.8.0	030117	14:36:05	3	1	3	3PP3PPTaskPractice.M	2	CHS1.M	2	1	1745	1	blank	2	Eric	2	Eric	1	+   +	1	+   +	1	+ +	1	+ +	1	+	8	2357.jpg	8	rflblue-m.png	8	lfrgreen-m.png	1	blank
4.0.8.0	030117	14:36:05	3	1	3	3PP3PPTaskPractice.M	3	CLS2.M	3	1	1531	1	blank	1	James	1	James	1	+   +	1	+   +	1	+ +	1	+ +	1	+	5	3567.jpg	5	rflgreen-m.png	5	lfrblue-m.png	1	blank
4.0.8.0	030117	14:36:05	3	1	3	3PP3PPTaskPractice.M	4	CHS2.M	3	1	1471	1	blank	2	Eric	2	Eric	1	+   +	1	+   +	1	+ +	1	+ +	1	+	3	3568.jpg	3	rflgreen-m.png	3	lfrblue-m.png	1	blank
4.0.8.0	030117	14:36:05	3	1	3	3PP3PPTaskPractice.M	5	CHS2.M	3	1	1391	1	blank	2	Eric	2	Eric	1	+   +	1	+   +	1	+ +	1	+ +	1	+	4	3568.jpg	4	rflblue-m.png	4	lfrgreen-m.png	1	blank
4.0.8.0	030117	14:36:05	3	1	3	3PP3PPTaskPractice.M	6	CHS1.M	2	1	1880	1	blank	2	Eric	2	Eric	1	+   +	1	+   +	1	+ +	1	+ +	1	+	4	1357.jpg	4	rflblue-m.png	4	lfrgreen-m.png	1	blank
4.0.8.0	030117	14:36:05	3	1	3	3PP3PPTaskPractice.M	7	IHS1.parallel.leftout.M	2	1	1954	1	blank	2	Eric	2	Eric	1	+   +	1	+   +	1	+ +	1	+ +	1	+	2	3567.jpg	2	lflblue-m.png	2	lfrgreen-m.png	1	blank
4.0.8.0	030117	14:36:05	3	1	3	3PP3PPTaskPractice.M	8	CHS2.M	3	1	1443	1	blank	2	Eric	2	Eric	1	+   +	1	+   +	1	+ +	1	+ +	1	+	5	3567.jpg	5	rflgreen-m.png	5	lfrblue-m.png	1	blank
4.0.8.0	030117	14:36:05	3	1	3	3PP3PPTaskPractice.M	9	ILS2.parallel.leftout.M	3	1	1504	1	blank	1	James	1	James	1	+   +	1	+   +	1	+ +	1	+ +	1	+	2	3457.jpg	2	lflblue-m.png	2	lfrgreen-m.png	1	blank
4.0.8.0	030117	14:36:05	3	1	3	3PP3PPTaskPractice.M	10	ILS1.outward.M	2	1	1754	1	blank	1	James	1	James	1	+   +	1	+   +	1	+ +	1	+ +	1	+	4	1357.jpg	4	lflblue-m.png	4	rfrgreen-m.png	1	blank
4.0.8.0	030117	14:36:05	3	1	3	3PP3PPTaskPractice.M	11	CLS1.M	2	1	1781	1	blank	1	James	1	James	1	+   +	1	+   +	1	+ +	1	+ +	1	+	8	2357.jpg	8	rflblue-m.png	8	lfrgreen-m.png	1	blank
4.0.8.0	030117	14:36:05	3	1	3	3PP3PPTaskPractice.M	12	CHS2.M	3	1	1587	1	blank	2	Eric	2	Eric	1	+   +	1	+   +	1	+ +	1	+ +	1	+	6	3567.jpg	6	rflblue-m.png	6	lfrgreen-m.png	1	blank
4.0.8.0	030117	14:36:05	3	1	3	3PP3PPTaskPractice.M	13	pracblockfb.M	57	0	2001	1	You got 12 out of 13 trials correct.   Please press space bar to continue.	0	0	0	0	0	0	0	0	0	0	0	0	0	0	0	0	0	0	0	0	0	0
4.0.8.0	030117	14:36:05	3	1	3	3PP3PPTaskPractice.M	14	pracblockpass	57	0	1236	1	Well done.  You're now ready to start the experimental block.   Please press space bar to continue.	0	0	0	0	0	0	0	0	0	0	0	0	0	0	0	0	0	0	0	0	0	0
4.0.8.0	030117	14:36:05	3	1	4	3PP3PPTask.M	1	instruct3	57	1	2499	1	REMINDER:    James (mall janitor) is represented by green.    Eric (mall director) is represented by blue.	1	Please press space bar to continue.	0	0	0	0	0	0	0	0	0	0	0	0	0	0	0	0	0	0	0	0
4.0.8.0	030117	14:36:05	3	1	4	3PP3PPTask.M	2	instruct3	57	1	1393	2	REMINDER:    The 1 key means that the target avatar sees one (1) dot.    The 2 key means that the target avatar sees two (2) dots.	2	Please press space bar to continue.	0	0	0	0	0	0	0	0	0	0	0	0	0	0	0	0	0	0	0	0
4.0.8.0	030117	14:36:05	3	1	4	3PP3PPTask.M	3	instruct3	3	1	1393	3	Time to get ready:    Please ensure your fingers are in the correct positions over the 1 and 2 keys on your keyboard.    The first experimental block begins after this screen.  Please remember to respond as QUICKLY and ACCURATELY as possible on all trials.	3	Please press the 2 key when you are ready to begin.	0	0	0	0	0	0	0	0	0	0	0	0	0	0	0	0	0	0	0	0
4.0.8.0	030117	14:36:05	3	1	4	3PP3PPTask.M	4	CLS2.M	3	1	1535	1	blank	1	James	1	James	1	+   +	1	+   +	1	+ +	1	+ +	1	+	5	3567.jpg	5	rflgreen-m.png	5	lfrblue-m.png	1	blank
4.0.8.0	030117	14:36:05	3	1	4	3PP3PPTask.M	5	CLS1.M	2	1	1518	1	blank	1	James	1	James	1	+   +	1	+   +	1	+ +	1	+ +	1	+	7	2357.jpg	7	rflgreen-m.png	7	lfrblue-m.png	1	blank
4.0.8.0	030117	14:36:05	3	1	4	3PP3PPTask.M	6	ILS1.outward.M	2	1	1694	1	blank	1	James	1	James	1	+   +	1	+   +	1	+ +	1	+ +	1	+	2	3579.jpg	2	lflgreen-m.png	2	rfrblue-m.png	1	blank
4.0.8.0	030117	14:36:05	3	1	4	3PP3PPTask.M	7	CLS1.M	2	1	1538	1	blank	1	James	1	James	1	+   +	1	+   +	1	+ +	1	+ +	1	+	1	3578.jpg	1	rflgreen-m.png	1	lfrblue-m.png	1	blank
4.0.8.0	030117	14:36:05	3	1	4	3PP3PPTask.M	8	ILS2.outward.M	3	1	1802	1	blank	1	James	1	James	1	+   +	1	+   +	1	+ +	1	+ +	1	+	1	2357.jpg	1	lflgreen-m.png	1	rfrblue-m.png	1	blank
4.0.8.0	030117	14:36:05	3	1	4	3PP3PPTask.M	9	CLS1.M	2	1	1523	1	blank	1	James	1	James	1	+   +	1	+   +	1	+ +	1	+ +	1	+	2	3578.jpg	2	rflblue-m.png	2	lfrgreen-m.png	1	blank
4.0.8.0	030117	14:36:05	3	1	4	3PP3PPTask.M	10	CHS2.M	3	1	1638	1	blank	2	Eric	2	Eric	1	+   +	1	+   +	1	+ +	1	+ +	1	+	1	3457.jpg	1	rflgreen-m.png	1	lfrblue-m.png	1	blank
4.0.8.0	030117	14:36:05	3	1	4	3PP3PPTask.M	11	CHS1.M	2	1	1767	1	blank	2	Eric	2	Eric	1	+   +	1	+   +	1	+ +	1	+ +	1	+	4	1357.jpg	4	rflblue-m.png	4	lfrgreen-m.png	1	blank
4.0.8.0	030117	14:36:05	3	1	4	3PP3PPTask.M	12	IHS2.outward.M	3	1	2224	1	blank	2	Eric	2	Eric	1	+   +	1	+   +	1	+ +	1	+ +	1	+	3	2357.jpg	3	lflblue-m.png	3	rfrgreen-m.png	1	blank
4.0.8.0	030117	14:36:05	3	1	4	3PP3PPTask.M	13	CLS1.M	2	1	1642	1	blank	1	James	1	James	1	+   +	1	+   +	1	+ +	1	+ +	1	+	3	1357.jpg	3	rflgreen-m.png	3	lfrblue-m.png	1	blank
4.0.8.0	030117	14:36:05	3	1	4	3PP3PPTask.M	14	IHS1.parallel.leftin.M	2	1	1739	1	blank	2	Eric	2	Eric	1	+   +	1	+   +	1	+ +	1	+ +	1	+	2	3578.jpg	2	rflblue-m.png	2	rfrgreen-m.png	1	blank
4.0.8.0	030117	14:36:05	3	1	4	3PP3PPTask.M	15	CLS1.M	2	1	1576	1	blank	1	James	1	James	1	+   +	1	+   +	1	+ +	1	+ +	1	+	8	2357.jpg	8	rflblue-m.png	8	lfrgreen-m.png	1	blank
4.0.8.0	030117	14:36:05	3	1	4	3PP3PPTask.M	16	CHS1.M	2	1	1787	1	blank	2	Eric	2	Eric	1	+   +	1	+   +	1	+ +	1	+ +	1	+	1	3578.jpg	1	rflgreen-m.png	1	lfrblue-m.png	1	blank
4.0.8.0	030117	14:36:05	3	1	4	3PP3PPTask.M	17	CLS2.M	3	1	1516	1	blank	1	James	1	James	1	+   +	1	+   +	1	+ +	1	+ +	1	+	8	2457.jpg	8	rflblue-m.png	8	lfrgreen-m.png	1	blank
4.0.8.0	030117	14:36:05	3	1	4	3PP3PPTask.M	18	IHS2.outward.M	3	1	1809	1	blank	2	Eric	2	Eric	1	+   +	1	+   +	1	+ +	1	+ +	1	+	1	3589.jpg	1	lflgreen-m.png	1	rfrblue-m.png	1	blank
4.0.8.0	030117	14:36:05	3	1	4	3PP3PPTask.M	19	CHS2.M	3	1	1633	1	blank	2	Eric	2	Eric	1	+   +	1	+   +	1	+ +	1	+ +	1	+	5	3567.jpg	5	rflgreen-m.png	5	lfrblue-m.png	1	blank
4.0.8.0	030117	14:36:05	3	1	4	3PP3PPTask.M	20	CLS2.M	3	1	1599	1	blank	1	James	1	James	1	+   +	1	+   +	1	+ +	1	+ +	1	+	2	3457.jpg	2	rflblue-m.png	2	lfrgreen-m.png	1	blank
4.0.8.0	030117	14:36:05	3	1	4	3PP3PPTask.M	21	ILS2.parallel.leftin.M	3	1	2628	1	blank	1	James	1	James	1	+   +	1	+   +	1	+ +	1	+ +	1	+	1	3568.jpg	1	rflgreen-m.png	1	rfrblue-m.png	1	blank
4.0.8.0	030117	14:36:05	3	1	4	3PP3PPTask.M	22	CLS1.M	2	1	1486	1	blank	1	James	1	James	1	+   +	1	+   +	1	+ +	1	+ +	1	+	5	3579.jpg	5	rflgreen-m.png	5	lfrblue-m.png	1	blank
4.0.8.0	030117	14:36:05	3	1	4	3PP3PPTask.M	23	CHS2.M	3	1	13885	1	blank	2	Eric	2	Eric	1	+   +	1	+   +	1	+ +	1	+ +	1	+	8	2457.jpg	8	rflblue-m.png	8	lfrgreen-m.png	1	blank
4.0.8.0	030117	14:36:05	3	1	4	3PP3PPTask.M	24	ILS2.parallel.leftin.M	3	1	2163	1	blank	1	James	1	James	1	+   +	1	+   +	1	+ +	1	+ +	1	+	2	3578.jpg	2	rflblue-m.png	2	rfrgreen-m.png	1	blank
4.0.8.0	030117	14:36:05	3	1	4	3PP3PPTask.M	25	ILS1.parallel.leftin.M	2	1	1489	1	blank	1	James	1	James	1	+   +	1	+   +	1	+ +	1	+ +	1	+	2	2457.jpg	2	rflblue-m.png	2	rfrgreen-m.png	1	blank
4.0.8.0	030117	14:36:05	3	1	4	3PP3PPTask.M	26	ILS1.parallel.leftout.M	3	0	1843	1	blank	1	James	1	James	1	+   +	1	+   +	1	+ +	1	+ +	1	+	2	2358.jpg	2	lflblue-m.png	2	lfrgreen-m.png	1	blank
4.0.8.0	030117	14:36:05	3	1	4	3PP3PPTask.M	27	IHS1.outward.M	2	1	1645	1	blank	2	Eric	2	Eric	1	+   +	1	+   +	1	+ +	1	+ +	1	+	4	3579.jpg	4	lflblue-m.png	4	rfrgreen-m.png	1	blank
4.0.8.0	030117	14:36:05	3	1	4	3PP3PPTask.M	28	ILS1.parallel.leftin.M	2	1	1619	1	blank	1	James	1	James	1	+   +	1	+   +	1	+ +	1	+ +	1	+	1	3578.jpg	1	rflgreen-m.png	1	rfrblue-m.png	1	blank
4.0.8.0	030117	14:36:05	3	1	4	3PP3PPTask.M	29	ILS2.parallel.leftin.M	3	1	2171	1	blank	1	James	1	James	1	+   +	1	+   +	1	+ +	1	+ +	1	+	2	3578.jpg	2	rflblue-m.png	2	rfrgreen-m.png	1	blank
4.0.8.0	030117	14:36:05	3	1	4	3PP3PPTask.M	30	CHS2.M	3	1	1600	1	blank	2	Eric	2	Eric	1	+   +	1	+   +	1	+ +	1	+ +	1	+	4	3568.jpg	4	rflblue-m.png	4	lfrgreen-m.png	1	blank
4.0.8.0	030117	14:36:05	3	1	4	3PP3PPTask.M	31	ILS2.parallel.leftout.M	2	0	3587	1	blank	1	James	1	James	1	+   +	1	+   +	1	+ +	1	+ +	1	+	1	2358.jpg	1	lflgreen-m.png	1	lfrblue-m.png	1	blank
4.0.8.0	030117	14:36:05	3	1	4	3PP3PPTask.M	32	ILS2.outward.M	3	1	1469	1	blank	1	James	1	James	1	+   +	1	+   +	1	+ +	1	+ +	1	+	3	3589.jpg	3	lflblue-m.png	3	rfrgreen-m.png	1	blank
4.0.8.0	030117	14:36:05	3	1	4	3PP3PPTask.M	33	ILS2.parallel.leftin.M	3	1	1453	1	blank	1	James	1	James	1	+   +	1	+   +	1	+ +	1	+ +	1	+	1	3568.jpg	1	rflgreen-m.png	1	rfrblue-m.png	1	blank
4.0.8.0	030117	14:36:05	3	1	4	3PP3PPTask.M	34	IHS1.parallel.leftin.M	2	1	1715	1	blank	2	Eric	2	Eric	1	+   +	1	+   +	1	+ +	1	+ +	1	+	1	2457.jpg	1	rflgreen-m.png	1	rfrblue-m.png	1	blank
4.0.8.0	030117	14:36:05	3	1	4	3PP3PPTask.M	35	ILS1.parallel.leftin.M	2	1	1765	1	blank	1	James	1	James	1	+   +	1	+   +	1	+ +	1	+ +	1	+	1	3578.jpg	1	rflgreen-m.png	1	rfrblue-m.png	1	blank
4.0.8.0	030117	14:36:05	3	1	4	3PP3PPTask.M	36	IHS1.parallel.leftin.M	2	1	1935	1	blank	2	Eric	2	Eric	1	+   +	1	+   +	1	+ +	1	+ +	1	+	2	3578.jpg	2	rflblue-m.png	2	rfrgreen-m.png	1	blank
4.0.8.0	030117	14:36:05	3	1	4	3PP3PPTask.M	37	IHS2.parallel.leftin.M	3	1	1510	1	blank	2	Eric	2	Eric	1	+   +	1	+   +	1	+ +	1	+ +	1	+	1	3578.jpg	1	rflgreen-m.png	1	rfrblue-m.png	1	blank
4.0.8.0	030117	14:36:05	3	1	4	3PP3PPTask.M	38	ILS2.outward.M	3	1	1908	1	blank	1	James	1	James	1	+   +	1	+   +	1	+ +	1	+ +	1	+	4	3579.jpg	4	lflblue-m.png	4	rfrgreen-m.png	1	blank
4.0.8.0	030117	14:36:05	3	1	4	3PP3PPTask.M	39	IHS1.parallel.leftout.M	2	1	1700	1	blank	2	Eric	2	Eric	1	+   +	1	+   +	1	+ +	1	+ +	1	+	2	3567.jpg	2	lflblue-m.png	2	lfrgreen-m.png	1	blank
4.0.8.0	030117	14:36:05	3	1	4	3PP3PPTask.M	40	CLS1.M	2	1	1739	1	blank	1	James	1	James	1	+   +	1	+   +	1	+ +	1	+ +	1	+	4	1357.jpg	4	rflblue-m.png	4	lfrgreen-m.png	1	blank
4.0.8.0	030117	14:36:05	3	1	4	3PP3PPTask.M	41	IHS2.outward.M	3	1	2835	1	blank	2	Eric	2	Eric	1	+   +	1	+   +	1	+ +	1	+ +	1	+	2	3579.jpg	2	lflgreen-m.png	2	rfrblue-m.png	1	blank
4.0.8.0	030117	14:36:05	3	1	4	3PP3PPTask.M	42	CHS2.M	3	1	1630	1	blank	2	Eric	2	Eric	1	+   +	1	+   +	1	+ +	1	+ +	1	+	7	2457.jpg	7	rflgreen-m.png	7	lfrblue-m.png	1	blank
4.0.8.0	030117	14:36:05	3	1	4	3PP3PPTask.M	43	CHS2.M	3	1	1431	1	blank	2	Eric	2	Eric	1	+   +	1	+   +	1	+ +	1	+ +	1	+	3	3568.jpg	3	rflgreen-m.png	3	lfrblue-m.png	1	blank
4.0.8.0	030117	14:36:05	3	1	4	3PP3PPTask.M	44	IHS1.parallel.leftout.M	3	0	1719	1	blank	2	Eric	2	Eric	1	+   +	1	+   +	1	+ +	1	+ +	1	+	1	2358.jpg	1	lflgreen-m.png	1	lfrblue-m.png	1	blank
4.0.8.0	030117	14:36:05	3	1	4	3PP3PPTask.M	45	CLS2.M	3	1	1588	1	blank	1	James	1	James	1	+   +	1	+   +	1	+ +	1	+ +	1	+	1	3457.jpg	1	rflgreen-m.png	1	lfrblue-m.png	1	blank
4.0.8.0	030117	14:36:05	3	1	4	3PP3PPTask.M	46	ILS1.outward.M	2	1	2425	1	blank	1	James	1	James	1	+   +	1	+   +	1	+ +	1	+ +	1	+	3	2357.jpg	3	lflblue-m.png	3	rfrgreen-m.png	1	blank
4.0.8.0	030117	14:36:05	3	1	4	3PP3PPTask.M	47	ILS1.outward.M	2	1	1877	1	blank	1	James	1	James	1	+   +	1	+   +	1	+ +	1	+ +	1	+	4	1357.jpg	4	lflblue-m.png	4	rfrgreen-m.png	1	blank
4.0.8.0	030117	14:36:05	3	1	4	3PP3PPTask.M	48	IHS1.parallel.leftout.M	3	0	1692	1	blank	2	Eric	2	Eric	1	+   +	1	+   +	1	+ +	1	+ +	1	+	2	3567.jpg	2	lflblue-m.png	2	lfrgreen-m.png	1	blank
4.0.8.0	030117	14:36:05	3	1	4	3PP3PPTask.M	49	ILS1.parallel.leftout.M	3	0	1728	1	blank	1	James	1	James	1	+   +	1	+   +	1	+ +	1	+ +	1	+	1	3567.jpg	1	lflgreen-m.png	1	lfrblue-m.png	1	blank
4.0.8.0	030117	14:36:05	3	1	4	3PP3PPTask.M	50	ILS1.outward.M	2	1	2098	1	blank	1	James	1	James	1	+   +	1	+   +	1	+ +	1	+ +	1	+	1	3589.jpg	1	lflgreen-m.png	1	rfrblue-m.png	1	blank
4.0.8.0	030117	14:36:05	3	1	4	3PP3PPTask.M	51	CLS1.M	2	1	1701	1	blank	1	James	1	James	1	+   +	1	+   +	1	+ +	1	+ +	1	+	6	3579.jpg	6	rflblue-m.png	6	lfrgreen-m.png	1	blank
4.0.8.0	030117	14:36:05	3	1	4	3PP3PPTask.M	52	IHS2.outward.M	3	1	1616	1	blank	2	Eric	2	Eric	1	+   +	1	+   +	1	+ +	1	+ +	1	+	4	1357.jpg	4	lflblue-m.png	4	rfrgreen-m.png	1	blank
4.0.8.0	030117	14:36:05	3	1	4	3PP3PPTask.M	53	CLS2.M	3	1	1684	1	blank	1	James	1	James	1	+   +	1	+   +	1	+ +	1	+ +	1	+	7	2457.jpg	7	rflgreen-m.png	7	lfrblue-m.png	1	blank
4.0.8.0	030117	14:36:05	3	1	4	3PP3PPTask.M	54	ILS2.outward.M	3	1	1583	1	blank	1	James	1	James	1	+   +	1	+   +	1	+ +	1	+ +	1	+	2	1357.jpg	2	lflgreen-m.png	2	rfrblue-m.png	1	blank
4.0.8.0	030117	14:36:05	3	1	4	3PP3PPTask.M	55	CHS2.M	3	1	1496	1	blank	2	Eric	2	Eric	1	+   +	1	+   +	1	+ +	1	+ +	1	+	2	3457.jpg	2	rflblue-m.png	2	lfrgreen-m.png	1	blank
4.0.8.0	030117	14:36:05	3	1	4	3PP3PPTask.M	56	CHS1.M	2	1	1525	1	blank	2	Eric	2	Eric	1	+   +	1	+   +	1	+ +	1	+ +	1	+	7	2357.jpg	7	rflgreen-m.png	7	lfrblue-m.png	1	blank
4.0.8.0	030117	14:36:05	3	1	4	3PP3PPTask.M	57	CHS1.M	2	1	1660	1	blank	2	Eric	2	Eric	1	+   +	1	+   +	1	+ +	1	+ +	1	+	5	3579.jpg	5	rflgreen-m.png	5	lfrblue-m.png	1	blank
4.0.8.0	030117	14:36:05	3	1	4	3PP3PPTask.M	58	ILS1.parallel.leftout.M	2	1	2297	1	blank	1	James	1	James	1	+   +	1	+   +	1	+ +	1	+ +	1	+	1	3567.jpg	1	lflgreen-m.png	1	lfrblue-m.png	1	blank
4.0.8.0	030117	14:36:05	3	1	4	3PP3PPTask.M	59	ILS1.outward.M	2	1	1892	1	blank	1	James	1	James	1	+   +	1	+   +	1	+ +	1	+ +	1	+	3	2357.jpg	3	lflblue-m.png	3	rfrgreen-m.png	1	blank
4.0.8.0	030117	14:36:05	3	1	4	3PP3PPTask.M	60	IHS2.parallel.leftout.M	3	1	1652	1	blank	2	Eric	2	Eric	1	+   +	1	+   +	1	+ +	1	+ +	1	+	2	2358.jpg	2	lflblue-m.png	2	lfrgreen-m.png	1	blank
4.0.8.0	030117	14:36:05	3	1	4	3PP3PPTask.M	61	CLS2.M	3	1	1448	1	blank	1	James	1	James	1	+   +	1	+   +	1	+ +	1	+ +	1	+	6	3567.jpg	6	rflblue-m.png	6	lfrgreen-m.png	1	blank
4.0.8.0	030117	14:36:05	3	1	4	3PP3PPTask.M	62	ILS2.parallel.leftout.M	2	0	1766	1	blank	1	James	1	James	1	+   +	1	+   +	1	+ +	1	+ +	1	+	2	3457.jpg	2	lflblue-m.png	2	lfrgreen-m.png	1	blank
4.0.8.0	030117	14:36:05	3	1	4	3PP3PPTask.M	63	ILS1.parallel.leftin.M	3	0	1677	1	blank	1	James	1	James	1	+   +	1	+   +	1	+ +	1	+ +	1	+	2	2457.jpg	2	rflblue-m.png	2	rfrgreen-m.png	1	blank
4.0.8.0	030117	14:36:05	3	1	4	3PP3PPTask.M	64	CHS2.M	3	1	1509	1	blank	2	Eric	2	Eric	1	+   +	1	+   +	1	+ +	1	+ +	1	+	6	3567.jpg	6	rflblue-m.png	6	lfrgreen-m.png	1	blank
4.0.8.0	030117	14:36:05	3	1	4	3PP3PPTask.M	65	ILS2.parallel.leftout.M	2	0	1683	1	blank	1	James	1	James	1	+   +	1	+   +	1	+ +	1	+ +	1	+	2	3457.jpg	2	lflblue-m.png	2	lfrgreen-m.png	1	blank
4.0.8.0	030117	14:36:05	3	1	4	3PP3PPTask.M	66	CHS1.M	2	1	1542	1	blank	2	Eric	2	Eric	1	+   +	1	+   +	1	+ +	1	+ +	1	+	6	3579.jpg	6	rflblue-m.png	6	lfrgreen-m.png	1	blank
4.0.8.0	030117	14:36:05	3	1	4	3PP3PPTask.M	67	ILS1.outward.M	3	0	2114	1	blank	1	James	1	James	1	+   +	1	+   +	1	+ +	1	+ +	1	+	2	3579.jpg	2	lflgreen-m.png	2	rfrblue-m.png	1	blank
4.0.8.0	030117	14:36:05	3	1	4	3PP3PPTask.M	68	CLS1.M	2	1	1662	1	blank	1	James	1	James	1	+   +	1	+   +	1	+ +	1	+ +	1	+	2	3578.jpg	2	rflblue-m.png	2	lfrgreen-m.png	1	blank
4.0.8.0	030117	14:36:05	3	1	4	3PP3PPTask.M	69	IHS1.outward.M	2	1	1611	1	blank	2	Eric	2	Eric	1	+   +	1	+   +	1	+ +	1	+ +	1	+	1	2357.jpg	1	lflgreen-m.png	1	rfrblue-m.png	1	blank
4.0.8.0	030117	14:36:05	3	1	4	3PP3PPTask.M	70	CLS2.M	3	1	1731	1	blank	1	James	1	James	1	+   +	1	+   +	1	+ +	1	+ +	1	+	3	3568.jpg	3	rflgreen-m.png	3	lfrblue-m.png	1	blank
4.0.8.0	030117	14:36:05	3	1	4	3PP3PPTask.M	71	CLS2.M	3	1	1587	1	blank	1	James	1	James	1	+   +	1	+   +	1	+ +	1	+ +	1	+	4	3568.jpg	4	rflblue-m.png	4	lfrgreen-m.png	1	blank
4.0.8.0	030117	14:36:05	3	1	4	3PP3PPTask.M	72	CHS2.M	3	1	1509	1	blank	2	Eric	2	Eric	1	+   +	1	+   +	1	+ +	1	+ +	1	+	8	2457.jpg	8	rflblue-m.png	8	lfrgreen-m.png	1	blank
4.0.8.0	030117	14:36:05	3	1	4	3PP3PPTask.M	73	IHS1.outward.M	2	1	2143	1	blank	2	Eric	2	Eric	1	+   +	1	+   +	1	+ +	1	+ +	1	+	2	1357.jpg	2	lflgreen-m.png	2	rfrblue-m.png	1	blank
4.0.8.0	030117	14:36:05	3	1	4	3PP3PPTask.M	74	CHS1.M	2	1	1693	1	blank	2	Eric	2	Eric	1	+   +	1	+   +	1	+ +	1	+ +	1	+	8	2357.jpg	8	rflblue-m.png	8	lfrgreen-m.png	1	blank
4.0.8.0	030117	14:36:05	3	1	4	3PP3PPTask.M	75	CLS1.M	2	1	1723	1	blank	1	James	1	James	1	+   +	1	+   +	1	+ +	1	+ +	1	+	5	3579.jpg	5	rflgreen-m.png	5	lfrblue-m.png	1	blank
4.0.8.0	030117	14:36:05	3	1	4	3PP3PPTask.M	76	IHS2.parallel.leftin.M	3	1	2357	1	blank	2	Eric	2	Eric	1	+   +	1	+   +	1	+ +	1	+ +	1	+	2	2457.jpg	2	rflblue-m.png	2	rfrgreen-m.png	1	blank
4.0.8.0	030117	14:36:05	3	1	4	3PP3PPTask.M	77	IHS1.parallel.leftin.M	2	1	2158	1	blank	2	Eric	2	Eric	1	+   +	1	+   +	1	+ +	1	+ +	1	+	1	2457.jpg	1	rflgreen-m.png	1	rfrblue-m.png	1	blank
4.0.8.0	030117	14:36:05	3	1	4	3PP3PPTask.M	78	CLS2.M	3	1	1893	1	blank	1	James	1	James	1	+   +	1	+   +	1	+ +	1	+ +	1	+	8	2457.jpg	8	rflblue-m.png	8	lfrgreen-m.png	1	blank
4.0.8.0	030117	14:36:05	3	1	4	3PP3PPTask.M	79	ILS1.outward.M	3	0	2149	1	blank	1	James	1	James	1	+   +	1	+   +	1	+ +	1	+ +	1	+	4	1357.jpg	4	lflblue-m.png	4	rfrgreen-m.png	1	blank
4.0.8.0	030117	14:36:05	3	1	4	3PP3PPTask.M	80	IHS2.parallel.leftin.M	3	1	1535	1	blank	2	Eric	2	Eric	1	+   +	1	+   +	1	+ +	1	+ +	1	+	2	2457.jpg	2	rflblue-m.png	2	rfrgreen-m.png	1	blank
4.0.8.0	030117	14:36:05	3	1	4	3PP3PPTask.M	81	IHS2.outward.M	3	1	1881	1	blank	2	Eric	2	Eric	1	+   +	1	+   +	1	+ +	1	+ +	1	+	2	3579.jpg	2	lflgreen-m.png	2	rfrblue-m.png	1	blank
4.0.8.0	030117	14:36:05	3	1	4	3PP3PPTask.M	82	CHS1.M	2	1	1536	1	blank	2	Eric	2	Eric	1	+   +	1	+   +	1	+ +	1	+ +	1	+	3	1357.jpg	3	rflgreen-m.png	3	lfrblue-m.png	1	blank
4.0.8.0	030117	14:36:05	3	1	4	3PP3PPTask.M	83	ILS2.outward.M	3	1	1744	1	blank	1	James	1	James	1	+   +	1	+   +	1	+ +	1	+ +	1	+	4	3579.jpg	4	lflblue-m.png	4	rfrgreen-m.png	1	blank
4.0.8.0	030117	14:36:05	3	1	4	3PP3PPTask.M	84	IHS2.outward.M	3	1	2171	1	blank	2	Eric	2	Eric	1	+   +	1	+   +	1	+ +	1	+ +	1	+	3	2357.jpg	3	lflblue-m.png	3	rfrgreen-m.png	1	blank
4.0.8.0	030117	14:36:05	3	1	4	3PP3PPTask.M	85	CHS2.M	3	1	1553	1	blank	2	Eric	2	Eric	1	+   +	1	+   +	1	+ +	1	+ +	1	+	2	3457.jpg	2	rflblue-m.png	2	lfrgreen-m.png	1	blank
4.0.8.0	030117	14:36:05	3	1	4	3PP3PPTask.M	86	CHS2.M	3	1	1531	1	blank	2	Eric	2	Eric	1	+   +	1	+   +	1	+ +	1	+ +	1	+	6	3567.jpg	6	rflblue-m.png	6	lfrgreen-m.png	1	blank
4.0.8.0	030117	14:36:05	3	1	4	3PP3PPTask.M	87	CHS2.M	3	1	1698	1	blank	2	Eric	2	Eric	1	+   +	1	+   +	1	+ +	1	+ +	1	+	5	3567.jpg	5	rflgreen-m.png	5	lfrblue-m.png	1	blank
4.0.8.0	030117	14:36:05	3	1	4	3PP3PPTask.M	88	IHS1.outward.M	2	1	1829	1	blank	2	Eric	2	Eric	1	+   +	1	+   +	1	+ +	1	+ +	1	+	3	3589.jpg	3	lflblue-m.png	3	rfrgreen-m.png	1	blank
4.0.8.0	030117	14:36:05	3	1	4	3PP3PPTask.M	89	CLS2.M	3	1	1563	1	blank	1	James	1	James	1	+   +	1	+   +	1	+ +	1	+ +	1	+	1	3457.jpg	1	rflgreen-m.png	1	lfrblue-m.png	1	blank
4.0.8.0	030117	14:36:05	3	1	4	3PP3PPTask.M	90	CHS2.M	3	1	1556	1	blank	2	Eric	2	Eric	1	+   +	1	+   +	1	+ +	1	+ +	1	+	4	3568.jpg	4	rflblue-m.png	4	lfrgreen-m.png	1	blank
4.0.8.0	030117	14:36:05	3	1	4	3PP3PPTask.M	91	CHS2.M	3	1	1988	1	blank	2	Eric	2	Eric	1	+   +	1	+   +	1	+ +	1	+ +	1	+	7	2457.jpg	7	rflgreen-m.png	7	lfrblue-m.png	1	blank
4.0.8.0	030117	14:36:05	3	1	4	3PP3PPTask.M	92	ILS2.outward.M	3	1	1644	1	blank	1	James	1	James	1	+   +	1	+   +	1	+ +	1	+ +	1	+	3	3589.jpg	3	lflblue-m.png	3	rfrgreen-m.png	1	blank
4.0.8.0	030117	14:36:05	3	1	4	3PP3PPTask.M	93	CLS2.M	3	1	1447	1	blank	1	James	1	James	1	+   +	1	+   +	1	+ +	1	+ +	1	+	7	2457.jpg	7	rflgreen-m.png	7	lfrblue-m.png	1	blank
4.0.8.0	030117	14:36:05	3	1	4	3PP3PPTask.M	94	IHS1.outward.M	2	1	2326	1	blank	2	Eric	2	Eric	1	+   +	1	+   +	1	+ +	1	+ +	1	+	3	3589.jpg	3	lflblue-m.png	3	rfrgreen-m.png	1	blank
4.0.8.0	030117	14:36:05	3	1	4	3PP3PPTask.M	95	CHS1.M	2	1	1703	1	blank	2	Eric	2	Eric	1	+   +	1	+   +	1	+ +	1	+ +	1	+	2	3578.jpg	2	rflblue-m.png	2	lfrgreen-m.png	1	blank
4.0.8.0	030117	14:36:05	3	1	4	3PP3PPTask.M	96	ILS1.parallel.leftout.M	2	1	3065	1	blank	1	James	1	James	1	+   +	1	+   +	1	+ +	1	+ +	1	+	2	2358.jpg	2	lflblue-m.png	2	lfrgreen-m.png	1	blank
4.0.8.0	030117	14:36:05	3	1	4	3PP3PPTask.M	97	CHS2.M	3	1	1601	1	blank	2	Eric	2	Eric	1	+   +	1	+   +	1	+ +	1	+ +	1	+	3	3568.jpg	3	rflgreen-m.png	3	lfrblue-m.png	1	blank
4.0.8.0	030117	14:36:05	3	1	4	3PP3PPTask.M	98	CLS1.M	2	1	1610	1	blank	1	James	1	James	1	+   +	1	+   +	1	+ +	1	+ +	1	+	8	2357.jpg	8	rflblue-m.png	8	lfrgreen-m.png	1	blank
4.0.8.0	030117	14:36:05	3	1	4	3PP3PPTask.M	99	CLS2.M	3	1	1587	1	blank	1	James	1	James	1	+   +	1	+   +	1	+ +	1	+ +	1	+	3	3568.jpg	3	rflgreen-m.png	3	lfrblue-m.png	1	blank
4.0.8.0	030117	14:36:05	3	1	4	3PP3PPTask.M	100	CHS1.M	2	1	1620	1	blank	2	Eric	2	Eric	1	+   +	1	+   +	1	+ +	1	+ +	1	+	2	3578.jpg	2	rflblue-m.png	2	lfrgreen-m.png	1	blank
4.0.8.0	030117	14:36:05	3	1	4	3PP3PPTask.M	101	CHS1.M	2	1	1531	1	blank	2	Eric	2	Eric	1	+   +	1	+   +	1	+ +	1	+ +	1	+	8	2357.jpg	8	rflblue-m.png	8	lfrgreen-m.png	1	blank
4.0.8.0	030117	14:36:05	3	1	4	3PP3PPTask.M	102	IHS2.outward.M	3	1	4391	1	blank	2	Eric	2	Eric	1	+   +	1	+   +	1	+ +	1	+ +	1	+	1	3589.jpg	1	lflgreen-m.png	1	rfrblue-m.png	1	blank
4.0.8.0	030117	14:36:05	3	1	4	3PP3PPTask.M	103	CLS2.M	3	1	2105	1	blank	1	James	1	James	1	+   +	1	+   +	1	+ +	1	+ +	1	+	4	3568.jpg	4	rflblue-m.png	4	lfrgreen-m.png	1	blank
4.0.8.0	030117	14:36:05	3	1	4	3PP3PPTask.M	104	IHS1.outward.M	2	1	1542	1	blank	2	Eric	2	Eric	1	+   +	1	+   +	1	+ +	1	+ +	1	+	2	1357.jpg	2	lflgreen-m.png	2	rfrblue-m.png	1	blank
4.0.8.0	030117	14:36:05	3	1	4	3PP3PPTask.M	105	CLS1.M	2	1	2302	1	blank	1	James	1	James	1	+   +	1	+   +	1	+ +	1	+ +	1	+	7	2357.jpg	7	rflgreen-m.png	7	lfrblue-m.png	1	blank
4.0.8.0	030117	14:36:05	3	1	4	3PP3PPTask.M	106	CLS2.M	3	1	1602	1	blank	1	James	1	James	1	+   +	1	+   +	1	+ +	1	+ +	1	+	2	3457.jpg	2	rflblue-m.png	2	lfrgreen-m.png	1	blank
4.0.8.0	030117	14:36:05	3	1	4	3PP3PPTask.M	107	CLS1.M	2	1	1951	1	blank	1	James	1	James	1	+   +	1	+   +	1	+ +	1	+ +	1	+	3	1357.jpg	3	rflgreen-m.png	3	lfrblue-m.png	1	blank
4.0.8.0	030117	14:36:05	3	1	4	3PP3PPTask.M	108	IHS2.parallel.leftout.M	3	1	2193	1	blank	2	Eric	2	Eric	1	+   +	1	+   +	1	+ +	1	+ +	1	+	1	3567.jpg	1	lflgreen-m.png	1	lfrblue-m.png	1	blank
4.0.8.0	030117	14:36:05	3	1	4	3PP3PPTask.M	109	IHS2.parallel.leftout.M	3	1	2222	1	blank	2	Eric	2	Eric	1	+   +	1	+   +	1	+ +	1	+ +	1	+	2	2358.jpg	2	lflblue-m.png	2	lfrgreen-m.png	1	blank
4.0.8.0	030117	14:36:05	3	1	4	3PP3PPTask.M	110	CHS1.M	2	1	1727	1	blank	2	Eric	2	Eric	1	+   +	1	+   +	1	+ +	1	+ +	1	+	3	1357.jpg	3	rflgreen-m.png	3	lfrblue-m.png	1	blank
4.0.8.0	030117	14:36:05	3	1	4	3PP3PPTask.M	111	ILS2.outward.M	3	1	1657	1	blank	1	James	1	James	1	+   +	1	+   +	1	+ +	1	+ +	1	+	2	1357.jpg	2	lflgreen-m.png	2	rfrblue-m.png	1	blank
4.0.8.0	030117	14:36:05	3	1	4	3PP3PPTask.M	112	ILS2.outward.M	2	0	5893	1	blank	1	James	1	James	1	+   +	1	+   +	1	+ +	1	+ +	1	+	1	2357.jpg	1	lflgreen-m.png	1	rfrblue-m.png	1	blank
4.0.8.0	030117	14:36:05	3	1	4	3PP3PPTask.M	113	CLS2.M	3	1	1499	1	blank	1	James	1	James	1	+   +	1	+   +	1	+ +	1	+ +	1	+	5	3567.jpg	5	rflgreen-m.png	5	lfrblue-m.png	1	blank
4.0.8.0	030117	14:36:05	3	1	4	3PP3PPTask.M	114	IHS2.outward.M	3	1	1590	1	blank	2	Eric	2	Eric	1	+   +	1	+   +	1	+ +	1	+ +	1	+	4	1357.jpg	4	lflblue-m.png	4	rfrgreen-m.png	1	blank
4.0.8.0	030117	14:36:05	3	1	4	3PP3PPTask.M	115	CHS1.M	2	1	1591	1	blank	2	Eric	2	Eric	1	+   +	1	+   +	1	+ +	1	+ +	1	+	4	1357.jpg	4	rflblue-m.png	4	lfrgreen-m.png	1	blank
4.0.8.0	030117	14:36:05	3	1	4	3PP3PPTask.M	116	IHS1.outward.M	2	1	2133	1	blank	2	Eric	2	Eric	1	+   +	1	+   +	1	+ +	1	+ +	1	+	4	3579.jpg	4	lflblue-m.png	4	rfrgreen-m.png	1	blank
4.0.8.0	030117	14:36:05	3	1	4	3PP3PPTask.M	117	CLS1.M	2	1	1521	1	blank	1	James	1	James	1	+   +	1	+   +	1	+ +	1	+ +	1	+	4	1357.jpg	4	rflblue-m.png	4	lfrgreen-m.png	1	blank
4.0.8.0	030117	14:36:05	3	1	4	3PP3PPTask.M	118	IHS1.outward.M	2	1	2337	1	blank	2	Eric	2	Eric	1	+   +	1	+   +	1	+ +	1	+ +	1	+	1	2357.jpg	1	lflgreen-m.png	1	rfrblue-m.png	1	blank
4.0.8.0	030117	14:36:05	3	1	4	3PP3PPTask.M	119	CHS1.M	2	1	1819	1	blank	2	Eric	2	Eric	1	+   +	1	+   +	1	+ +	1	+ +	1	+	6	3579.jpg	6	rflblue-m.png	6	lfrgreen-m.png	1	blank
4.0.8.0	030117	14:36:05	3	1	4	3PP3PPTask.M	120	IHS1.parallel.leftout.M	2	1	2310	1	blank	2	Eric	2	Eric	1	+   +	1	+   +	1	+ +	1	+ +	1	+	1	2358.jpg	1	lflgreen-m.png	1	lfrblue-m.png	1	blank
4.0.8.0	030117	14:36:05	3	1	4	3PP3PPTask.M	121	CHS2.M	3	1	1519	1	blank	2	Eric	2	Eric	1	+   +	1	+   +	1	+ +	1	+ +	1	+	1	3457.jpg	1	rflgreen-m.png	1	lfrblue-m.png	1	blank
4.0.8.0	030117	14:36:05	3	1	4	3PP3PPTask.M	122	CLS1.M	2	1	1936	1	blank	1	James	1	James	1	+   +	1	+   +	1	+ +	1	+ +	1	+	1	3578.jpg	1	rflgreen-m.png	1	lfrblue-m.png	1	blank
4.0.8.0	030117	14:36:05	3	1	4	3PP3PPTask.M	123	ILS1.outward.M	2	1	2391	1	blank	1	James	1	James	1	+   +	1	+   +	1	+ +	1	+ +	1	+	1	3589.jpg	1	lflgreen-m.png	1	rfrblue-m.png	1	blank
4.0.8.0	030117	14:36:05	3	1	4	3PP3PPTask.M	124	IHS2.parallel.leftout.M	3	1	1615	1	blank	2	Eric	2	Eric	1	+   +	1	+   +	1	+ +	1	+ +	1	+	1	3567.jpg	1	lflgreen-m.png	1	lfrblue-m.png	1	blank
4.0.8.0	030117	14:36:05	3	1	4	3PP3PPTask.M	125	IHS2.parallel.leftin.M	3	1	1654	1	blank	2	Eric	2	Eric	1	+   +	1	+   +	1	+ +	1	+ +	1	+	1	3578.jpg	1	rflgreen-m.png	1	rfrblue-m.png	1	blank
4.0.8.0	030117	14:36:05	3	1	4	3PP3PPTask.M	126	CHS1.M	2	1	1759	1	blank	2	Eric	2	Eric	1	+   +	1	+   +	1	+ +	1	+ +	1	+	1	3578.jpg	1	rflgreen-m.png	1	lfrblue-m.png	1	blank
4.0.8.0	030117	14:36:05	3	1	4	3PP3PPTask.M	127	ILS2.parallel.leftout.M	3	1	1629	1	blank	1	James	1	James	1	+   +	1	+   +	1	+ +	1	+ +	1	+	1	2358.jpg	1	lflgreen-m.png	1	lfrblue-m.png	1	blank
4.0.8.0	030117	14:36:05	3	1	4	3PP3PPTask.M	128	CLS2.M	3	1	1611	1	blank	1	James	1	James	1	+   +	1	+   +	1	+ +	1	+ +	1	+	6	3567.jpg	6	rflblue-m.png	6	lfrgreen-m.png	1	blank
4.0.8.0	030117	14:36:05	3	1	4	3PP3PPTask.M	129	CHS1.M	2	1	1806	1	blank	2	Eric	2	Eric	1	+   +	1	+   +	1	+ +	1	+ +	1	+	7	2357.jpg	7	rflgreen-m.png	7	lfrblue-m.png	1	blank
4.0.8.0	030117	14:36:05	3	1	4	3PP3PPTask.M	130	CHS1.M	2	1	1592	1	blank	2	Eric	2	Eric	1	+   +	1	+   +	1	+ +	1	+ +	1	+	5	3579.jpg	5	rflgreen-m.png	5	lfrblue-m.png	1	blank
4.0.8.0	030117	14:36:05	3	1	4	3PP3PPTask.M	131	CLS1.M	2	1	1604	1	blank	1	James	1	James	1	+   +	1	+   +	1	+ +	1	+ +	1	+	6	3579.jpg	6	rflblue-m.png	6	lfrgreen-m.png	1	blank
4.0.8.0	030117	14:36:05	3	1	6	finish	1	finish	57	0	2645	1	Thank you for completing the perspective-taking task.    Take a moment to rest if you wish.  After this, we will have you complete a short attentional task.      When you are ready to continue, please press space bar.	0	0	0	0	0	0	0	0	0	0	0	0	0	0	0	0	0	0	0	0	0	0
