subject	date	time	blockcode	trialcode	trialnum	latency	response	correct	stimulusitem1	stimulusnumber1	stimulusitem2	stimulusnumber2	stimulusitem3	stimulusnumber3	stimulusitem4	stimulusnumber4	stimulusitem5	stimulusnumber5
3	030117	14:33:37	introductions1.M	introductions.M	1	12602	57	1	greenmalefront-m.png	1	greenmaleleft-m.png	1	greenmaleright-m.png	1	Meet James.  James’s father worked as a mechanic and his mother worked part time as a waitress at a local restaurant chain.  After graduating with his high school diploma, James started working in cleaning services as a janitor at Mall One.  Although James’s residential neighborhood is far from the mall, most of his neighbors have also found similar low-level positions in service, retail, and restaurant businesses requiring a lengthy commute.  Recently, some of James’s neighbors have started renting in a new neighborhood where the traffic on their evening commute is much lighter.  However, James fits in well in his neighborhood, even if it may not be the most appealing location for commuters.  Plus, he feels confident that he can manage with the increasing traffic on his evening commute.  James is represented by the color green.  Please press space bar to continue.	1	0	0
3	030117	14:33:37	introductions1.M	introductions.M	2	2509	57	1	bluemalefront-m.png	2	bluemaleleft-m.png	2	bluemaleright-m.png	2	Meet Eric.  Eric’s father worked as a head accountant and his mother worked part time as an interior design consultant.  After graduating with his Master’s degree in business administration, Eric started working as the director of operations at Mall One.  Although Eric’s residential gated community is far from the mall, most of his neighbors have also found similar upper-level management positions in locally headquartered corporations requiring a lengthy commute.  Recently, some of Eric’s neighbors have bought homes in a new gated community where the traffic on their evening commute is much lighter.  However, Eric fits in well in his gated community, even if it may not be the most coveted location for commuters.  Plus, he feels confident that he can manage with the increasing traffic on his evening commute.  Eric is represented by the color blue.  Please press space bar to continue.	2	0	0
3	030117	14:33:37	introductions2.M	HSlearning.M	1	1133	57	1	+	1	+	1	bluemaleright-m.png	6	Eric  (Employment: Director)  Please press space bar to continue.	1	0	0
3	030117	14:33:37	introductions2.M	LSlearning.M	2	575	57	1	+	1	+	1	rflgreen-m.png	3	James  (Employment: Janitor)  Please press space bar to continue.	1	0	0
3	030117	14:33:37	introductions2.M	HSlearning.M	3	575	57	1	+	1	+	1	lflblue-m.png	1	Eric  (Employment: Director)  Please press space bar to continue.	1	0	0
3	030117	14:33:37	introductions2.M	LSlearning.M	4	483	57	1	+	1	+	1	greenmaleright-m.png	6	James  (Employment: Janitor)  Please press space bar to continue.	1	0	0
3	030117	14:33:37	introductions2.M	HSlearning.M	5	601	57	1	+	1	+	1	rflblue-m.png	3	Eric  (Employment: Director)  Please press space bar to continue.	1	0	0
3	030117	14:33:37	introductions2.M	LSlearning.M	6	410	57	1	+	1	+	1	lflgreen-m.png	1	James  (Employment: Janitor)  Please press space bar to continue.	1	0	0
3	030117	14:33:37	introductions2.M	HSlearning.M	7	390	57	1	+	1	+	1	rfrblue-m.png	4	Eric  (Employment: Director)  Please press space bar to continue.	1	0	0
3	030117	14:33:37	introductions2.M	LSlearning.M	8	296	57	1	+	1	+	1	lfrgreen-m.png	2	James  (Employment: Janitor)  Please press space bar to continue.	1	0	0
3	030117	14:33:37	introductions2.M	HSlearning.M	9	273	57	1	+	1	+	1	lfrblue-m.png	2	Eric  (Employment: Director)  Please press space bar to continue.	1	0	0
3	030117	14:33:37	introductions2.M	LSlearning.M	10	229	57	1	+	1	+	1	rfrgreen-m.png	4	James  (Employment: Janitor)  Please press space bar to continue.	1	0	0
3	030117	14:33:37	introductions2.M	LSlearning.M	11	227	57	1	+	1	+	1	greenmaleleft-m.png	5	James  (Employment: Janitor)  Please press space bar to continue.	1	0	0
3	030117	14:33:37	introductions2.M	HSlearning.M	12	277	57	1	+	1	+	1	bluemaleleft-m.png	5	Eric  (Employment: Director)  Please press space bar to continue.	1	0	0
3	030117	14:33:37	test.M	HStest.M	1	2406	2	1	+	1	+	1	rfrblue-m.png	4	This person works as the mall director.  What is this person's name?	1	Press 1 for Eric        Press 2 for James	1
3	030117	14:33:37	test.M	HStest.M	2	1388	2	1	+	1	+	1	bluemaleright-m.png	6	This person works as the mall director.  What is this person's name?	1	Press 1 for Eric        Press 2 for James	1
3	030117	14:33:37	test.M	LStest.M	3	681	3	1	+	1	+	1	greenmaleright-m.png	6	This person works as the mall janitor.  What is this person's name?	1	Press 1 for Eric        Press 2 for James	1
3	030117	14:33:37	test.M	HStest.M	4	992	2	1	+	1	+	1	rflblue-m.png	3	This person works as the mall director.  What is this person's name?	1	Press 1 for Eric        Press 2 for James	1
3	030117	14:33:37	test.M	HStest.M	5	2768	2	0	+	1	+	1	lflblue-m.png	1	This person works as the mall director.  What is this person's name?	1	Press 1 for Eric        Press 2 for James	1
3	030117	14:33:37	test.M	LStest.M	6	1256	3	1	+	1	+	1	lflgreen-m.png	1	This person works as the mall janitor.  What is this person's name?	1	Press 1 for Eric        Press 2 for James	1
3	030117	14:33:37	test.M	LStest.M	7	617	3	1	+	1	+	1	greenmaleleft-m.png	5	This person works as the mall janitor.  What is this person's name?	1	Press 1 for Eric        Press 2 for James	1
3	030117	14:33:37	test.M	HStest.M	8	451	2	1	+	1	+	1	bluemaleleft-m.png	5	This person works as the mall director.  What is this person's name?	1	Press 1 for Eric        Press 2 for James	1
3	030117	14:33:37	test.M	LStest.M	9	488	3	1	+	1	+	1	lfrgreen-m.png	2	This person works as the mall janitor.  What is this person's name?	1	Press 1 for Eric        Press 2 for James	1
3	030117	14:33:37	test.M	LStest.M	10	457	3	1	+	1	+	1	rfrgreen-m.png	4	This person works as the mall janitor.  What is this person's name?	1	Press 1 for Eric        Press 2 for James	1
3	030117	14:33:37	test.M	LStest.M	11	1004	3	1	+	1	+	1	rflgreen-m.png	3	This person works as the mall janitor.  What is this person's name?	1	Press 1 for Eric        Press 2 for James	1
3	030117	14:33:37	test.M	LStest.M	12	529	3	1	+	1	+	1	lflgreen-m.png	1	This person works as the mall janitor.  What is this person's name?	1	Press 1 for Eric        Press 2 for James	1
3	030117	14:33:37	test.M	HStest.M	13	472	2	1	+	1	+	1	lfrblue-m.png	2	This person works as the mall director.  What is this person's name?	1	Press 1 for Eric        Press 2 for James	1
3	030117	14:33:37	test.M	LStest.M	14	528	3	1	+	1	+	1	rfrgreen-m.png	4	This person works as the mall janitor.  What is this person's name?	1	Press 1 for Eric        Press 2 for James	1
3	030117	14:33:37	test.M	HStest.M	15	462	2	1	+	1	+	1	rflblue-m.png	3	This person works as the mall director.  What is this person's name?	1	Press 1 for Eric        Press 2 for James	1
3	030117	14:33:37	test.M	HStest.M	16	1110	2	1	+	1	+	1	bluemaleleft-m.png	5	This person works as the mall director.  What is this person's name?	1	Press 1 for Eric        Press 2 for James	1
3	030117	14:33:37	test.M	LStest.M	17	666	3	1	+	1	+	1	greenmaleleft-m.png	5	This person works as the mall janitor.  What is this person's name?	1	Press 1 for Eric        Press 2 for James	1
3	030117	14:33:37	test.M	LStest.M	18	474	3	1	+	1	+	1	greenmaleright-m.png	6	This person works as the mall janitor.  What is this person's name?	1	Press 1 for Eric        Press 2 for James	1
3	030117	14:33:37	test.M	HStest.M	19	405	2	1	+	1	+	1	rfrblue-m.png	4	This person works as the mall director.  What is this person's name?	1	Press 1 for Eric        Press 2 for James	1
3	030117	14:33:37	test.M	LStest.M	20	371	3	1	+	1	+	1	lfrgreen-m.png	2	This person works as the mall janitor.  What is this person's name?	1	Press 1 for Eric        Press 2 for James	1
3	030117	14:33:37	test.M	LStest.M	21	1720	3	1	+	1	+	1	rflgreen-m.png	3	This person works as the mall janitor.  What is this person's name?	1	Press 1 for Eric        Press 2 for James	1
3	030117	14:33:37	test.M	LStest.M	22	356	3	1	+	1	+	1	rflgreen-m.png	3	This person works as the mall janitor.  What is this person's name?	1	Press 1 for Eric        Press 2 for James	1
3	030117	14:33:37	test.M	HStest.M	23	412	2	1	+	1	+	1	bluemaleright-m.png	6	This person works as the mall director.  What is this person's name?	1	Press 1 for Eric        Press 2 for James	1
3	030117	14:33:37	test.M	HStest.M	24	432	2	1	+	1	+	1	lfrblue-m.png	2	This person works as the mall director.  What is this person's name?	1	Press 1 for Eric        Press 2 for James	1
3	030117	14:33:37	test.M	HStest.M	25	347	2	1	+	1	+	1	lflblue-m.png	1	This person works as the mall director.  What is this person's name?	1	Press 1 for Eric        Press 2 for James	1
3	030117	14:33:37	test.M	HStest.M	26	304	2	1	+	1	+	1	lflblue-m.png	1	This person works as the mall director.  What is this person's name?	1	Press 1 for Eric        Press 2 for James	1
3	030117	14:33:37	test.M	LStest.M	27	731	3	0	+	1	+	1	lflgreen-m.png	1	This person works as the mall janitor.  What is this person's name?	1	Press 1 for Eric        Press 2 for James	1
3	030117	14:33:37	test.M	LStest.M	28	497	3	1	+	1	+	1	rfrgreen-m.png	4	This person works as the mall janitor.  What is this person's name?	1	Press 1 for Eric        Press 2 for James	1
3	030117	14:33:37	test.M	LStest.M	29	380	3	1	+	1	+	1	greenmaleleft-m.png	5	This person works as the mall janitor.  What is this person's name?	1	Press 1 for Eric        Press 2 for James	1
3	030117	14:33:37	test.M	LStest.M	30	417	3	1	+	1	+	1	lfrgreen-m.png	2	This person works as the mall janitor.  What is this person's name?	1	Press 1 for Eric        Press 2 for James	1
3	030117	14:33:37	test.M	HStest.M	31	302	2	1	+	1	+	1	bluemaleleft-m.png	5	This person works as the mall director.  What is this person's name?	1	Press 1 for Eric        Press 2 for James	1
3	030117	14:33:37	test.M	HStest.M	32	284	2	1	+	1	+	1	lfrblue-m.png	2	This person works as the mall director.  What is this person's name?	1	Press 1 for Eric        Press 2 for James	1
3	030117	14:33:37	test.M	HStest.M	33	297	2	1	+	1	+	1	rfrblue-m.png	4	This person works as the mall director.  What is this person's name?	1	Press 1 for Eric        Press 2 for James	1
3	030117	14:33:37	test.M	LStest.M	34	368	3	1	+	1	+	1	greenmaleright-m.png	6	This person works as the mall janitor.  What is this person's name?	1	Press 1 for Eric        Press 2 for James	1
3	030117	14:33:37	test.M	HStest.M	35	409	2	1	+	1	+	1	rflblue-m.png	3	This person works as the mall director.  What is this person's name?	1	Press 1 for Eric        Press 2 for James	1
3	030117	14:33:37	test.M	HStest.M	36	426	2	1	+	1	+	1	bluemaleright-m.png	6	This person works as the mall director.  What is this person's name?	1	Press 1 for Eric        Press 2 for James	1
3	030117	14:33:37	relearn.M	introductions.M	1	1924	57	1	greenmalefront-m.png	1	greenmaleleft-m.png	1	greenmaleright-m.png	1	Meet James.  James’s father worked as a mechanic and his mother worked part time as a waitress at a local restaurant chain.  After graduating with his high school diploma, James started working in cleaning services as a janitor at Mall One.  Although James’s residential neighborhood is far from the mall, most of his neighbors have also found similar low-level positions in service, retail, and restaurant businesses requiring a lengthy commute.  Recently, some of James’s neighbors have started renting in a new neighborhood where the traffic on their evening commute is much lighter.  However, James fits in well in his neighborhood, even if it may not be the most appealing location for commuters.  Plus, he feels confident that he can manage with the increasing traffic on his evening commute.  James is represented by the color green.  Please press space bar to continue.	1	0	0
3	030117	14:33:37	relearn.M	introductions.M	2	773	57	1	bluemalefront-m.png	2	bluemaleleft-m.png	2	bluemaleright-m.png	2	Meet Eric.  Eric’s father worked as a head accountant and his mother worked part time as an interior design consultant.  After graduating with his Master’s degree in business administration, Eric started working as the director of operations at Mall One.  Although Eric’s residential gated community is far from the mall, most of his neighbors have also found similar upper-level management positions in locally headquartered corporations requiring a lengthy commute.  Recently, some of Eric’s neighbors have bought homes in a new gated community where the traffic on their evening commute is much lighter.  However, Eric fits in well in his gated community, even if it may not be the most coveted location for commuters.  Plus, he feels confident that he can manage with the increasing traffic on his evening commute.  Eric is represented by the color blue.  Please press space bar to continue.	2	0	0
3	030117	14:33:37	relearn.M	HStest.M	3	1531	2	1	+	1	+	1	bluemaleleft-m.png	5	This person works as the mall director.  What is this person's name?	1	Press 1 for Eric        Press 2 for James	1
3	030117	14:33:37	relearn.M	HStest.M	4	559	2	1	+	1	+	1	bluemaleright-m.png	6	This person works as the mall director.  What is this person's name?	1	Press 1 for Eric        Press 2 for James	1
3	030117	14:33:37	relearn.M	HStest.M	5	779	2	1	+	1	+	1	rfrblue-m.png	4	This person works as the mall director.  What is this person's name?	1	Press 1 for Eric        Press 2 for James	1
3	030117	14:33:37	relearn.M	LStest.M	6	1119	3	1	+	1	+	1	greenmaleright-m.png	6	This person works as the mall janitor.  What is this person's name?	1	Press 1 for Eric        Press 2 for James	1
3	030117	14:33:37	relearn.M	LStest.M	7	369	3	1	+	1	+	1	rfrgreen-m.png	4	This person works as the mall janitor.  What is this person's name?	1	Press 1 for Eric        Press 2 for James	1
3	030117	14:33:37	relearn.M	HStest.M	8	655	2	1	+	1	+	1	rflblue-m.png	3	This person works as the mall director.  What is this person's name?	1	Press 1 for Eric        Press 2 for James	1
3	030117	14:33:37	relearn.M	HStest.M	9	728	2	1	+	1	+	1	lfrblue-m.png	2	This person works as the mall director.  What is this person's name?	1	Press 1 for Eric        Press 2 for James	1
3	030117	14:33:37	relearn.M	LStest.M	10	1118	3	1	+	1	+	1	greenmaleleft-m.png	5	This person works as the mall janitor.  What is this person's name?	1	Press 1 for Eric        Press 2 for James	1
3	030117	14:33:37	relearn.M	HStest.M	11	554	2	1	+	1	+	1	lflblue-m.png	1	This person works as the mall director.  What is this person's name?	1	Press 1 for Eric        Press 2 for James	1
3	030117	14:33:37	relearn.M	LStest.M	12	576	3	1	+	1	+	1	lflgreen-m.png	1	This person works as the mall janitor.  What is this person's name?	1	Press 1 for Eric        Press 2 for James	1
3	030117	14:33:37	relearn.M	HStest.M	13	1117	2	1	+	1	+	1	lflblue-m.png	1	This person works as the mall director.  What is this person's name?	1	Press 1 for Eric        Press 2 for James	1
3	030117	14:33:37	relearn.M	LStest.M	14	446	3	1	+	1	+	1	rflgreen-m.png	3	This person works as the mall janitor.  What is this person's name?	1	Press 1 for Eric        Press 2 for James	1
3	030117	14:33:37	relearn.M	HStest.M	15	453	2	1	+	1	+	1	rfrblue-m.png	4	This person works as the mall director.  What is this person's name?	1	Press 1 for Eric        Press 2 for James	1
3	030117	14:33:37	relearn.M	LStest.M	16	497	3	1	+	1	+	1	lfrgreen-m.png	2	This person works as the mall janitor.  What is this person's name?	1	Press 1 for Eric        Press 2 for James	1
3	030117	14:33:37	relearn.M	LStest.M	17	318	3	1	+	1	+	1	rflgreen-m.png	3	This person works as the mall janitor.  What is this person's name?	1	Press 1 for Eric        Press 2 for James	1
3	030117	14:33:37	relearn.M	LStest.M	18	376	3	1	+	1	+	1	greenmaleleft-m.png	5	This person works as the mall janitor.  What is this person's name?	1	Press 1 for Eric        Press 2 for James	1
3	030117	14:33:37	relearn.M	HStest.M	19	374	2	1	+	1	+	1	lfrblue-m.png	2	This person works as the mall director.  What is this person's name?	1	Press 1 for Eric        Press 2 for James	1
3	030117	14:33:37	relearn.M	LStest.M	20	378	3	1	+	1	+	1	rfrgreen-m.png	4	This person works as the mall janitor.  What is this person's name?	1	Press 1 for Eric        Press 2 for James	1
3	030117	14:33:37	relearn.M	LStest.M	21	337	3	1	+	1	+	1	greenmaleright-m.png	6	This person works as the mall janitor.  What is this person's name?	1	Press 1 for Eric        Press 2 for James	1
3	030117	14:33:37	relearn.M	HStest.M	22	379	2	1	+	1	+	1	bluemaleleft-m.png	5	This person works as the mall director.  What is this person's name?	1	Press 1 for Eric        Press 2 for James	1
3	030117	14:33:37	relearn.M	LStest.M	23	507	3	1	+	1	+	1	lflgreen-m.png	1	This person works as the mall janitor.  What is this person's name?	1	Press 1 for Eric        Press 2 for James	1
3	030117	14:33:37	relearn.M	HStest.M	24	580	2	1	+	1	+	1	rflblue-m.png	3	This person works as the mall director.  What is this person's name?	1	Press 1 for Eric        Press 2 for James	1
3	030117	14:33:37	relearn.M	LStest.M	25	341	3	1	+	1	+	1	lfrgreen-m.png	2	This person works as the mall janitor.  What is this person's name?	1	Press 1 for Eric        Press 2 for James	1
3	030117	14:33:37	relearn.M	LStest.M	26	362	3	1	+	1	+	1	greenmaleleft-m.png	5	This person works as the mall janitor.  What is this person's name?	1	Press 1 for Eric        Press 2 for James	1
3	030117	14:33:37	relearn.M	HStest.M	27	387	2	1	+	1	+	1	bluemaleright-m.png	6	This person works as the mall director.  What is this person's name?	1	Press 1 for Eric        Press 2 for James	1
3	030117	14:33:37	relearn.M	HStest.M	28	321	2	1	+	1	+	1	rflblue-m.png	3	This person works as the mall director.  What is this person's name?	1	Press 1 for Eric        Press 2 for James	1
3	030117	14:33:37	relearn.M	LStest.M	29	377	3	1	+	1	+	1	rflgreen-m.png	3	This person works as the mall janitor.  What is this person's name?	1	Press 1 for Eric        Press 2 for James	1
3	030117	14:33:37	relearn.M	HStest.M	30	550	2	1	+	1	+	1	lflblue-m.png	1	This person works as the mall director.  What is this person's name?	1	Press 1 for Eric        Press 2 for James	1
3	030117	14:33:37	relearn.M	LStest.M	31	663	3	1	+	1	+	1	rfrgreen-m.png	4	This person works as the mall janitor.  What is this person's name?	1	Press 1 for Eric        Press 2 for James	1
3	030117	14:33:37	relearn.M	HStest.M	32	607	2	1	+	1	+	1	lfrblue-m.png	2	This person works as the mall director.  What is this person's name?	1	Press 1 for Eric        Press 2 for James	1
3	030117	14:33:37	relearn.M	LStest.M	33	762	3	1	+	1	+	1	greenmaleright-m.png	6	This person works as the mall janitor.  What is this person's name?	1	Press 1 for Eric        Press 2 for James	1
3	030117	14:33:37	relearn.M	LStest.M	34	387	3	1	+	1	+	1	lflgreen-m.png	1	This person works as the mall janitor.  What is this person's name?	1	Press 1 for Eric        Press 2 for James	1
3	030117	14:33:37	relearn.M	LStest.M	35	325	3	1	+	1	+	1	lfrgreen-m.png	2	This person works as the mall janitor.  What is this person's name?	1	Press 1 for Eric        Press 2 for James	1
3	030117	14:33:37	relearn.M	HStest.M	36	472	2	1	+	1	+	1	bluemaleleft-m.png	5	This person works as the mall director.  What is this person's name?	1	Press 1 for Eric        Press 2 for James	1
3	030117	14:33:37	relearn.M	HStest.M	37	472	2	1	+	1	+	1	bluemaleright-m.png	6	This person works as the mall director.  What is this person's name?	1	Press 1 for Eric        Press 2 for James	1
3	030117	14:33:37	relearn.M	HStest.M	38	441	2	1	+	1	+	1	rfrblue-m.png	4	This person works as the mall director.  What is this person's name?	1	Press 1 for Eric        Press 2 for James	1
