subject	date	time	blockcode	trialcode	trialnum	latency	response	correct	stimulusitem1	stimulusnumber1	stimulusitem2	stimulusnumber2	stimulusitem3	stimulusnumber3	stimulusitem4	stimulusnumber4	stimulusitem5	stimulusnumber5
3	030117	15:11:06	introductions1.M	introductions.M	1	3386	57	1	bluemalefront-m.png	2	bluemaleleft-m.png	2	bluemaleright-m.png	2	This is Eric.  Eric is high status in the US.  Here, we indicate high status by the color blue.  Please press space bar to continue.	2	0	0
3	030117	15:11:06	introductions1.M	introductions.M	2	2754	57	1	greenmalefront-m.png	1	greenmaleleft-m.png	1	greenmaleright-m.png	1	This is James.  James is low status in the US.  Here, we indicate low status by the color green.  Please press space bar to continue.	1	0	0
3	030117	15:11:06	introductions2.M	HSlearning.M	1	1432	57	1	+	1	+	1	rfrblue-m.png	4	Eric  (HIGH status)  Please press space bar to continue.	1	0	0
3	030117	15:11:06	introductions2.M	HSlearning.M	2	531	57	1	+	1	+	1	bluemaleleft-m.png	5	Eric  (HIGH status)  Please press space bar to continue.	1	0	0
3	030117	15:11:06	introductions2.M	LSlearning.M	3	334	57	1	+	1	+	1	lfrgreen-m.png	2	James  (LOW status)  Please press space bar to continue.	1	0	0
3	030117	15:11:06	introductions2.M	HSlearning.M	4	281	57	1	+	1	+	1	rflblue-m.png	3	Eric  (HIGH status)  Please press space bar to continue.	1	0	0
3	030117	15:11:06	introductions2.M	LSlearning.M	5	234	57	1	+	1	+	1	greenmaleright-m.png	6	James  (LOW status)  Please press space bar to continue.	1	0	0
3	030117	15:11:06	introductions2.M	HSlearning.M	6	349	57	1	+	1	+	1	lflblue-m.png	1	Eric  (HIGH status)  Please press space bar to continue.	1	0	0
3	030117	15:11:06	introductions2.M	HSlearning.M	7	411	57	1	+	1	+	1	bluemaleright-m.png	6	Eric  (HIGH status)  Please press space bar to continue.	1	0	0
3	030117	15:11:06	introductions2.M	LSlearning.M	8	356	57	1	+	1	+	1	rflgreen-m.png	3	James  (LOW status)  Please press space bar to continue.	1	0	0
3	030117	15:11:06	introductions2.M	LSlearning.M	9	276	57	1	+	1	+	1	lflgreen-m.png	1	James  (LOW status)  Please press space bar to continue.	1	0	0
3	030117	15:11:06	introductions2.M	LSlearning.M	10	320	57	1	+	1	+	1	rfrgreen-m.png	4	James  (LOW status)  Please press space bar to continue.	1	0	0
3	030117	15:11:06	introductions2.M	LSlearning.M	11	352	57	1	+	1	+	1	greenmaleleft-m.png	5	James  (LOW status)  Please press space bar to continue.	1	0	0
3	030117	15:11:06	introductions2.M	HSlearning.M	12	356	57	1	+	1	+	1	lfrblue-m.png	2	Eric  (HIGH status)  Please press space bar to continue.	1	0	0
3	030117	15:11:06	test.M	LStest.M	1	1332	3	1	+	1	+	1	lfrgreen-m.png	2	Is James HIGH or LOW social status in the US?	1	Press 1 for HIGH STATUS        Press 2 for LOW STATUS	1
3	030117	15:11:06	test.M	LStest.M	2	466	3	1	+	1	+	1	rflgreen-m.png	3	Is James HIGH or LOW social status in the US?	1	Press 1 for HIGH STATUS        Press 2 for LOW STATUS	1
3	030117	15:11:06	test.M	LStest.M	3	319	3	1	+	1	+	1	rfrgreen-m.png	4	Is James HIGH or LOW social status in the US?	1	Press 1 for HIGH STATUS        Press 2 for LOW STATUS	1
3	030117	15:11:06	test.M	HStest.M	4	274	2	1	+	1	+	1	lfrblue-m.png	2	Is Eric HIGH or LOW social status in the US?	1	Press 1 for HIGH STATUS        Press 2 for LOW STATUS	1
3	030117	15:11:06	test.M	LStest.M	5	396	3	1	+	1	+	1	greenmaleleft-m.png	5	Is James HIGH or LOW social status in the US?	1	Press 1 for HIGH STATUS        Press 2 for LOW STATUS	1
3	030117	15:11:06	test.M	HStest.M	6	346	2	1	+	1	+	1	lflblue-m.png	1	Is Eric HIGH or LOW social status in the US?	1	Press 1 for HIGH STATUS        Press 2 for LOW STATUS	1
3	030117	15:11:06	test.M	HStest.M	7	272	2	1	+	1	+	1	rflblue-m.png	3	Is Eric HIGH or LOW social status in the US?	1	Press 1 for HIGH STATUS        Press 2 for LOW STATUS	1
3	030117	15:11:06	test.M	HStest.M	8	303	2	1	+	1	+	1	rfrblue-m.png	4	Is Eric HIGH or LOW social status in the US?	1	Press 1 for HIGH STATUS        Press 2 for LOW STATUS	1
3	030117	15:11:06	test.M	LStest.M	9	318	3	1	+	1	+	1	lflgreen-m.png	1	Is James HIGH or LOW social status in the US?	1	Press 1 for HIGH STATUS        Press 2 for LOW STATUS	1
3	030117	15:11:06	test.M	HStest.M	10	328	2	1	+	1	+	1	bluemaleright-m.png	6	Is Eric HIGH or LOW social status in the US?	1	Press 1 for HIGH STATUS        Press 2 for LOW STATUS	1
3	030117	15:11:06	test.M	LStest.M	11	403	3	1	+	1	+	1	greenmaleright-m.png	6	Is James HIGH or LOW social status in the US?	1	Press 1 for HIGH STATUS        Press 2 for LOW STATUS	1
3	030117	15:11:06	test.M	LStest.M	12	355	3	1	+	1	+	1	rflgreen-m.png	3	Is James HIGH or LOW social status in the US?	1	Press 1 for HIGH STATUS        Press 2 for LOW STATUS	1
3	030117	15:11:06	test.M	HStest.M	13	324	2	1	+	1	+	1	bluemaleleft-m.png	5	Is Eric HIGH or LOW social status in the US?	1	Press 1 for HIGH STATUS        Press 2 for LOW STATUS	1
3	030117	15:11:06	test.M	HStest.M	14	314	2	1	+	1	+	1	rflblue-m.png	3	Is Eric HIGH or LOW social status in the US?	1	Press 1 for HIGH STATUS        Press 2 for LOW STATUS	1
3	030117	15:11:06	test.M	LStest.M	15	330	3	1	+	1	+	1	lfrgreen-m.png	2	Is James HIGH or LOW social status in the US?	1	Press 1 for HIGH STATUS        Press 2 for LOW STATUS	1
3	030117	15:11:06	test.M	HStest.M	16	376	2	1	+	1	+	1	lflblue-m.png	1	Is Eric HIGH or LOW social status in the US?	1	Press 1 for HIGH STATUS        Press 2 for LOW STATUS	1
3	030117	15:11:06	test.M	HStest.M	17	405	2	1	+	1	+	1	bluemaleleft-m.png	5	Is Eric HIGH or LOW social status in the US?	1	Press 1 for HIGH STATUS        Press 2 for LOW STATUS	1
3	030117	15:11:06	test.M	LStest.M	18	477	3	1	+	1	+	1	greenmaleleft-m.png	5	Is James HIGH or LOW social status in the US?	1	Press 1 for HIGH STATUS        Press 2 for LOW STATUS	1
3	030117	15:11:06	test.M	HStest.M	19	410	2	1	+	1	+	1	rfrblue-m.png	4	Is Eric HIGH or LOW social status in the US?	1	Press 1 for HIGH STATUS        Press 2 for LOW STATUS	1
3	030117	15:11:06	test.M	HStest.M	20	403	2	1	+	1	+	1	lfrblue-m.png	2	Is Eric HIGH or LOW social status in the US?	1	Press 1 for HIGH STATUS        Press 2 for LOW STATUS	1
3	030117	15:11:06	test.M	HStest.M	21	346	2	1	+	1	+	1	bluemaleright-m.png	6	Is Eric HIGH or LOW social status in the US?	1	Press 1 for HIGH STATUS        Press 2 for LOW STATUS	1
3	030117	15:11:06	test.M	LStest.M	22	381	3	1	+	1	+	1	greenmaleright-m.png	6	Is James HIGH or LOW social status in the US?	1	Press 1 for HIGH STATUS        Press 2 for LOW STATUS	1
3	030117	15:11:06	test.M	HStest.M	23	446	2	1	+	1	+	1	bluemaleright-m.png	6	Is Eric HIGH or LOW social status in the US?	1	Press 1 for HIGH STATUS        Press 2 for LOW STATUS	1
3	030117	15:11:06	test.M	HStest.M	24	435	2	1	+	1	+	1	lfrblue-m.png	2	Is Eric HIGH or LOW social status in the US?	1	Press 1 for HIGH STATUS        Press 2 for LOW STATUS	1
3	030117	15:11:06	test.M	HStest.M	25	284	2	1	+	1	+	1	rfrblue-m.png	4	Is Eric HIGH or LOW social status in the US?	1	Press 1 for HIGH STATUS        Press 2 for LOW STATUS	1
3	030117	15:11:06	test.M	LStest.M	26	304	3	1	+	1	+	1	lflgreen-m.png	1	Is James HIGH or LOW social status in the US?	1	Press 1 for HIGH STATUS        Press 2 for LOW STATUS	1
3	030117	15:11:06	test.M	LStest.M	27	276	3	1	+	1	+	1	rfrgreen-m.png	4	Is James HIGH or LOW social status in the US?	1	Press 1 for HIGH STATUS        Press 2 for LOW STATUS	1
3	030117	15:11:06	test.M	HStest.M	28	347	2	1	+	1	+	1	rflblue-m.png	3	Is Eric HIGH or LOW social status in the US?	1	Press 1 for HIGH STATUS        Press 2 for LOW STATUS	1
3	030117	15:11:06	test.M	HStest.M	29	410	2	1	+	1	+	1	bluemaleleft-m.png	5	Is Eric HIGH or LOW social status in the US?	1	Press 1 for HIGH STATUS        Press 2 for LOW STATUS	1
3	030117	15:11:06	test.M	LStest.M	30	471	3	1	+	1	+	1	rflgreen-m.png	3	Is James HIGH or LOW social status in the US?	1	Press 1 for HIGH STATUS        Press 2 for LOW STATUS	1
3	030117	15:11:06	test.M	LStest.M	31	344	3	1	+	1	+	1	rfrgreen-m.png	4	Is James HIGH or LOW social status in the US?	1	Press 1 for HIGH STATUS        Press 2 for LOW STATUS	1
3	030117	15:11:06	test.M	LStest.M	32	377	3	1	+	1	+	1	greenmaleright-m.png	6	Is James HIGH or LOW social status in the US?	1	Press 1 for HIGH STATUS        Press 2 for LOW STATUS	1
3	030117	15:11:06	test.M	HStest.M	33	357	2	1	+	1	+	1	lflblue-m.png	1	Is Eric HIGH or LOW social status in the US?	1	Press 1 for HIGH STATUS        Press 2 for LOW STATUS	1
3	030117	15:11:06	test.M	LStest.M	34	870	3	1	+	1	+	1	lflgreen-m.png	1	Is James HIGH or LOW social status in the US?	1	Press 1 for HIGH STATUS        Press 2 for LOW STATUS	1
3	030117	15:11:06	test.M	LStest.M	35	347	3	1	+	1	+	1	lfrgreen-m.png	2	Is James HIGH or LOW social status in the US?	1	Press 1 for HIGH STATUS        Press 2 for LOW STATUS	1
3	030117	15:11:06	test.M	LStest.M	36	419	3	1	+	1	+	1	greenmaleleft-m.png	5	Is James HIGH or LOW social status in the US?	1	Press 1 for HIGH STATUS        Press 2 for LOW STATUS	1
3	030117	15:11:06	relearn.M	introductions.M	1	1699	57	1	bluemalefront-m.png	2	bluemaleleft-m.png	2	bluemaleright-m.png	2	This is Eric.  Eric is high status in the US.  Here, we indicate high status by the color blue.  Please press space bar to continue.	2	0	0
3	030117	15:11:06	relearn.M	introductions.M	2	480	57	1	greenmalefront-m.png	1	greenmaleleft-m.png	1	greenmaleright-m.png	1	This is James.  James is low status in the US.  Here, we indicate low status by the color green.  Please press space bar to continue.	1	0	0
3	030117	15:11:06	relearn.M	LStest.M	3	584	3	1	+	1	+	1	lfrgreen-m.png	2	Is James HIGH or LOW social status in the US?	1	Press 1 for HIGH STATUS        Press 2 for LOW STATUS	1
3	030117	15:11:06	relearn.M	LStest.M	4	359	3	1	+	1	+	1	rflgreen-m.png	3	Is James HIGH or LOW social status in the US?	1	Press 1 for HIGH STATUS        Press 2 for LOW STATUS	1
3	030117	15:11:06	relearn.M	LStest.M	5	290	3	1	+	1	+	1	rfrgreen-m.png	4	Is James HIGH or LOW social status in the US?	1	Press 1 for HIGH STATUS        Press 2 for LOW STATUS	1
3	030117	15:11:06	relearn.M	LStest.M	6	358	3	1	+	1	+	1	greenmaleleft-m.png	5	Is James HIGH or LOW social status in the US?	1	Press 1 for HIGH STATUS        Press 2 for LOW STATUS	1
3	030117	15:11:06	relearn.M	HStest.M	7	356	2	1	+	1	+	1	bluemaleleft-m.png	5	Is Eric HIGH or LOW social status in the US?	1	Press 1 for HIGH STATUS        Press 2 for LOW STATUS	1
3	030117	15:11:06	relearn.M	HStest.M	8	290	2	1	+	1	+	1	rflblue-m.png	3	Is Eric HIGH or LOW social status in the US?	1	Press 1 for HIGH STATUS        Press 2 for LOW STATUS	1
3	030117	15:11:06	relearn.M	HStest.M	9	264	2	1	+	1	+	1	bluemaleright-m.png	6	Is Eric HIGH or LOW social status in the US?	1	Press 1 for HIGH STATUS        Press 2 for LOW STATUS	1
3	030117	15:11:06	relearn.M	HStest.M	10	342	2	1	+	1	+	1	lflblue-m.png	1	Is Eric HIGH or LOW social status in the US?	1	Press 1 for HIGH STATUS        Press 2 for LOW STATUS	1
3	030117	15:11:06	relearn.M	LStest.M	11	264	3	1	+	1	+	1	lflgreen-m.png	1	Is James HIGH or LOW social status in the US?	1	Press 1 for HIGH STATUS        Press 2 for LOW STATUS	1
3	030117	15:11:06	relearn.M	HStest.M	12	329	2	1	+	1	+	1	rfrblue-m.png	4	Is Eric HIGH or LOW social status in the US?	1	Press 1 for HIGH STATUS        Press 2 for LOW STATUS	1
3	030117	15:11:06	relearn.M	HStest.M	13	378	2	1	+	1	+	1	lfrblue-m.png	2	Is Eric HIGH or LOW social status in the US?	1	Press 1 for HIGH STATUS        Press 2 for LOW STATUS	1
3	030117	15:11:06	relearn.M	HStest.M	14	381	2	1	+	1	+	1	bluemaleright-m.png	6	Is Eric HIGH or LOW social status in the US?	1	Press 1 for HIGH STATUS        Press 2 for LOW STATUS	1
3	030117	15:11:06	relearn.M	HStest.M	15	360	2	1	+	1	+	1	rfrblue-m.png	4	Is Eric HIGH or LOW social status in the US?	1	Press 1 for HIGH STATUS        Press 2 for LOW STATUS	1
3	030117	15:11:06	relearn.M	HStest.M	16	329	2	1	+	1	+	1	lflblue-m.png	1	Is Eric HIGH or LOW social status in the US?	1	Press 1 for HIGH STATUS        Press 2 for LOW STATUS	1
3	030117	15:11:06	relearn.M	HStest.M	17	319	2	1	+	1	+	1	lfrblue-m.png	2	Is Eric HIGH or LOW social status in the US?	1	Press 1 for HIGH STATUS        Press 2 for LOW STATUS	1
3	030117	15:11:06	relearn.M	LStest.M	18	340	3	1	+	1	+	1	greenmaleright-m.png	6	Is James HIGH or LOW social status in the US?	1	Press 1 for HIGH STATUS        Press 2 for LOW STATUS	1
3	030117	15:11:06	relearn.M	HStest.M	19	362	2	1	+	1	+	1	rflblue-m.png	3	Is Eric HIGH or LOW social status in the US?	1	Press 1 for HIGH STATUS        Press 2 for LOW STATUS	1
3	030117	15:11:06	relearn.M	LStest.M	20	392	3	1	+	1	+	1	lfrgreen-m.png	2	Is James HIGH or LOW social status in the US?	1	Press 1 for HIGH STATUS        Press 2 for LOW STATUS	1
3	030117	15:11:06	relearn.M	LStest.M	21	534	3	1	+	1	+	1	greenmaleright-m.png	6	Is James HIGH or LOW social status in the US?	1	Press 1 for HIGH STATUS        Press 2 for LOW STATUS	1
3	030117	15:11:06	relearn.M	LStest.M	22	315	3	1	+	1	+	1	rfrgreen-m.png	4	Is James HIGH or LOW social status in the US?	1	Press 1 for HIGH STATUS        Press 2 for LOW STATUS	1
3	030117	15:11:06	relearn.M	LStest.M	23	370	3	1	+	1	+	1	greenmaleleft-m.png	5	Is James HIGH or LOW social status in the US?	1	Press 1 for HIGH STATUS        Press 2 for LOW STATUS	1
3	030117	15:11:06	relearn.M	HStest.M	24	482	2	1	+	1	+	1	bluemaleleft-m.png	5	Is Eric HIGH or LOW social status in the US?	1	Press 1 for HIGH STATUS        Press 2 for LOW STATUS	1
3	030117	15:11:06	relearn.M	HStest.M	25	370	2	1	+	1	+	1	bluemaleleft-m.png	5	Is Eric HIGH or LOW social status in the US?	1	Press 1 for HIGH STATUS        Press 2 for LOW STATUS	1
3	030117	15:11:06	relearn.M	HStest.M	26	420	2	1	+	1	+	1	lfrblue-m.png	2	Is Eric HIGH or LOW social status in the US?	1	Press 1 for HIGH STATUS        Press 2 for LOW STATUS	1
3	030117	15:11:06	relearn.M	HStest.M	27	338	2	1	+	1	+	1	rflblue-m.png	3	Is Eric HIGH or LOW social status in the US?	1	Press 1 for HIGH STATUS        Press 2 for LOW STATUS	1
3	030117	15:11:06	relearn.M	LStest.M	28	484	3	1	+	1	+	1	rflgreen-m.png	3	Is James HIGH or LOW social status in the US?	1	Press 1 for HIGH STATUS        Press 2 for LOW STATUS	1
3	030117	15:11:06	relearn.M	HStest.M	29	926	2	1	+	1	+	1	rfrblue-m.png	4	Is Eric HIGH or LOW social status in the US?	1	Press 1 for HIGH STATUS        Press 2 for LOW STATUS	1
3	030117	15:11:06	relearn.M	LStest.M	30	944	3	1	+	1	+	1	lflgreen-m.png	1	Is James HIGH or LOW social status in the US?	1	Press 1 for HIGH STATUS        Press 2 for LOW STATUS	1
3	030117	15:11:06	relearn.M	LStest.M	31	366	3	1	+	1	+	1	greenmaleleft-m.png	5	Is James HIGH or LOW social status in the US?	1	Press 1 for HIGH STATUS        Press 2 for LOW STATUS	1
3	030117	15:11:06	relearn.M	LStest.M	32	310	3	1	+	1	+	1	lflgreen-m.png	1	Is James HIGH or LOW social status in the US?	1	Press 1 for HIGH STATUS        Press 2 for LOW STATUS	1
3	030117	15:11:06	relearn.M	LStest.M	33	351	3	1	+	1	+	1	rflgreen-m.png	3	Is James HIGH or LOW social status in the US?	1	Press 1 for HIGH STATUS        Press 2 for LOW STATUS	1
3	030117	15:11:06	relearn.M	HStest.M	34	385	2	1	+	1	+	1	lflblue-m.png	1	Is Eric HIGH or LOW social status in the US?	1	Press 1 for HIGH STATUS        Press 2 for LOW STATUS	1
3	030117	15:11:06	relearn.M	HStest.M	35	475	2	1	+	1	+	1	bluemaleright-m.png	6	Is Eric HIGH or LOW social status in the US?	1	Press 1 for HIGH STATUS        Press 2 for LOW STATUS	1
3	030117	15:11:06	relearn.M	LStest.M	36	771	3	1	+	1	+	1	lfrgreen-m.png	2	Is James HIGH or LOW social status in the US?	1	Press 1 for HIGH STATUS        Press 2 for LOW STATUS	1
3	030117	15:11:06	relearn.M	LStest.M	37	408	3	1	+	1	+	1	rfrgreen-m.png	4	Is James HIGH or LOW social status in the US?	1	Press 1 for HIGH STATUS        Press 2 for LOW STATUS	1
3	030117	15:11:06	relearn.M	LStest.M	38	431	3	1	+	1	+	1	greenmaleright-m.png	6	Is James HIGH or LOW social status in the US?	1	Press 1 for HIGH STATUS        Press 2 for LOW STATUS	1
