subject	date	time	blockcode	trialcode	trialnum	latency	response	correct	stimulusitem1	stimulusnumber1	stimulusitem2	stimulusnumber2	stimulusitem3	stimulusnumber3	stimulusitem4	stimulusnumber4	stimulusitem5	stimulusnumber5
1	030117	14:51:27	introductions1.F	introductions.F	1	2631	57	1	bluefemalefront-f.png	1	bluefemaleleft-f.png	1	bluefemaleright-f.png	1	This is Jenny.  Jenny is low status in the US.  Here, we indicate low status by the color blue.  Please press space bar to continue.	1	0	0
1	030117	14:51:27	introductions1.F	introductions.F	2	4993	57	1	greenfemalefront-f.png	2	greenfemaleleft-f.png	2	greenfemaleright-f.png	2	This is Erica.  Erica is high status in the US.  Here, we indicate high status by the color green.  Please press space bar to continue.	2	0	0
1	030117	14:51:27	introductions2.F	HSlearning.F	1	2707	57	1	+	1	+	1	lflgreen-f.png	1	Erica  (HIGH status)  Please press space bar to continue.	1	0	0
1	030117	14:51:27	introductions2.F	LSlearning.F	2	5637	57	1	+	1	+	1	bluefemaleright-f.png	6	Jenny  (LOW status)  Please press space bar to continue.	1	0	0
1	030117	14:51:27	introductions2.F	HSlearning.F	3	1676	57	1	+	1	+	1	lfrgreen-f.png	2	Erica  (HIGH status)  Please press space bar to continue.	1	0	0
1	030117	14:51:27	introductions2.F	HSlearning.F	4	451	57	1	+	1	+	1	rflgreen-f.png	3	Erica  (HIGH status)  Please press space bar to continue.	1	0	0
1	030117	14:51:27	introductions2.F	HSlearning.F	5	405	57	1	+	1	+	1	rfrgreen-f.png	4	Erica  (HIGH status)  Please press space bar to continue.	1	0	0
1	030117	14:51:27	introductions2.F	LSlearning.F	6	393	57	1	+	1	+	1	rfrblue-f.png	4	Jenny  (LOW status)  Please press space bar to continue.	1	0	0
1	030117	14:51:27	introductions2.F	HSlearning.F	7	331	57	1	+	1	+	1	greenfemaleright-f.png	6	Erica  (HIGH status)  Please press space bar to continue.	1	0	0
1	030117	14:51:27	introductions2.F	LSlearning.F	8	334	57	1	+	1	+	1	rflblue-f.png	3	Jenny  (LOW status)  Please press space bar to continue.	1	0	0
1	030117	14:51:27	introductions2.F	HSlearning.F	9	267	57	1	+	1	+	1	greenfemaleleft-f.png	5	Erica  (HIGH status)  Please press space bar to continue.	1	0	0
1	030117	14:51:27	introductions2.F	LSlearning.F	10	282	57	1	+	1	+	1	lfrblue-f.png	2	Jenny  (LOW status)  Please press space bar to continue.	1	0	0
1	030117	14:51:27	introductions2.F	LSlearning.F	11	206	57	1	+	1	+	1	lflblue-f.png	1	Jenny  (LOW status)  Please press space bar to continue.	1	0	0
1	030117	14:51:27	introductions2.F	LSlearning.F	12	287	57	1	+	1	+	1	bluefemaleleft-f.png	5	Jenny  (LOW status)  Please press space bar to continue.	1	0	0
1	030117	14:51:27	test.F	HStest.F	1	3158	2	1	+	1	+	1	lfrgreen-f.png	2	Is Erica HIGH or LOW social status in the US?	1	Press 1 for HIGH STATUS        Press 2 for LOW STATUS	1
1	030117	14:51:27	test.F	HStest.F	2	730	2	1	+	1	+	1	lflgreen-f.png	1	Is Erica HIGH or LOW social status in the US?	1	Press 1 for HIGH STATUS        Press 2 for LOW STATUS	1
1	030117	14:51:27	test.F	LStest.F	3	415	3	1	+	1	+	1	rfrblue-f.png	4	Is Jenny HIGH or LOW social status in the US?	1	Press 1 for HIGH STATUS        Press 2 for LOW STATUS	1
1	030117	14:51:27	test.F	HStest.F	4	423	2	1	+	1	+	1	rflgreen-f.png	3	Is Erica HIGH or LOW social status in the US?	1	Press 1 for HIGH STATUS        Press 2 for LOW STATUS	1
1	030117	14:51:27	test.F	LStest.F	5	430	3	1	+	1	+	1	lfrblue-f.png	2	Is Jenny HIGH or LOW social status in the US?	1	Press 1 for HIGH STATUS        Press 2 for LOW STATUS	1
1	030117	14:51:27	test.F	HStest.F	6	298	2	1	+	1	+	1	rfrgreen-f.png	4	Is Erica HIGH or LOW social status in the US?	1	Press 1 for HIGH STATUS        Press 2 for LOW STATUS	1
1	030117	14:51:27	test.F	LStest.F	7	712	3	1	+	1	+	1	bluefemaleright-f.png	6	Is Jenny HIGH or LOW social status in the US?	1	Press 1 for HIGH STATUS        Press 2 for LOW STATUS	1
1	030117	14:51:27	test.F	LStest.F	8	389	3	1	+	1	+	1	rflblue-f.png	3	Is Jenny HIGH or LOW social status in the US?	1	Press 1 for HIGH STATUS        Press 2 for LOW STATUS	1
1	030117	14:51:27	test.F	LStest.F	9	320	3	1	+	1	+	1	bluefemaleleft-f.png	5	Is Jenny HIGH or LOW social status in the US?	1	Press 1 for HIGH STATUS        Press 2 for LOW STATUS	1
1	030117	14:51:27	test.F	HStest.F	10	424	2	1	+	1	+	1	greenfemaleleft-f.png	5	Is Erica HIGH or LOW social status in the US?	1	Press 1 for HIGH STATUS        Press 2 for LOW STATUS	1
1	030117	14:51:27	test.F	HStest.F	11	331	2	1	+	1	+	1	greenfemaleright-f.png	6	Is Erica HIGH or LOW social status in the US?	1	Press 1 for HIGH STATUS        Press 2 for LOW STATUS	1
1	030117	14:51:27	test.F	HStest.F	12	316	2	1	+	1	+	1	greenfemaleright-f.png	6	Is Erica HIGH or LOW social status in the US?	1	Press 1 for HIGH STATUS        Press 2 for LOW STATUS	1
1	030117	14:51:27	test.F	HStest.F	13	258	2	1	+	1	+	1	greenfemaleleft-f.png	5	Is Erica HIGH or LOW social status in the US?	1	Press 1 for HIGH STATUS        Press 2 for LOW STATUS	1
1	030117	14:51:27	test.F	LStest.F	14	429	3	1	+	1	+	1	lflblue-f.png	1	Is Jenny HIGH or LOW social status in the US?	1	Press 1 for HIGH STATUS        Press 2 for LOW STATUS	1
1	030117	14:51:27	test.F	HStest.F	15	389	2	1	+	1	+	1	lfrgreen-f.png	2	Is Erica HIGH or LOW social status in the US?	1	Press 1 for HIGH STATUS        Press 2 for LOW STATUS	1
1	030117	14:51:27	test.F	LStest.F	16	648	3	1	+	1	+	1	rflblue-f.png	3	Is Jenny HIGH or LOW social status in the US?	1	Press 1 for HIGH STATUS        Press 2 for LOW STATUS	1
1	030117	14:51:27	test.F	HStest.F	17	330	2	1	+	1	+	1	rfrgreen-f.png	4	Is Erica HIGH or LOW social status in the US?	1	Press 1 for HIGH STATUS        Press 2 for LOW STATUS	1
1	030117	14:51:27	test.F	LStest.F	18	407	3	1	+	1	+	1	bluefemaleleft-f.png	5	Is Jenny HIGH or LOW social status in the US?	1	Press 1 for HIGH STATUS        Press 2 for LOW STATUS	1
1	030117	14:51:27	test.F	LStest.F	19	374	3	1	+	1	+	1	bluefemaleright-f.png	6	Is Jenny HIGH or LOW social status in the US?	1	Press 1 for HIGH STATUS        Press 2 for LOW STATUS	1
1	030117	14:51:27	test.F	HStest.F	20	362	2	1	+	1	+	1	rflgreen-f.png	3	Is Erica HIGH or LOW social status in the US?	1	Press 1 for HIGH STATUS        Press 2 for LOW STATUS	1
1	030117	14:51:27	test.F	LStest.F	21	416	3	1	+	1	+	1	rfrblue-f.png	4	Is Jenny HIGH or LOW social status in the US?	1	Press 1 for HIGH STATUS        Press 2 for LOW STATUS	1
1	030117	14:51:27	test.F	HStest.F	22	312	2	1	+	1	+	1	lflgreen-f.png	1	Is Erica HIGH or LOW social status in the US?	1	Press 1 for HIGH STATUS        Press 2 for LOW STATUS	1
1	030117	14:51:27	test.F	LStest.F	23	377	3	1	+	1	+	1	lfrblue-f.png	2	Is Jenny HIGH or LOW social status in the US?	1	Press 1 for HIGH STATUS        Press 2 for LOW STATUS	1
1	030117	14:51:27	test.F	LStest.F	24	366	3	1	+	1	+	1	lflblue-f.png	1	Is Jenny HIGH or LOW social status in the US?	1	Press 1 for HIGH STATUS        Press 2 for LOW STATUS	1
1	030117	14:51:27	test.F	HStest.F	25	363	2	1	+	1	+	1	greenfemaleleft-f.png	5	Is Erica HIGH or LOW social status in the US?	1	Press 1 for HIGH STATUS        Press 2 for LOW STATUS	1
1	030117	14:51:27	test.F	HStest.F	26	260	2	1	+	1	+	1	lfrgreen-f.png	2	Is Erica HIGH or LOW social status in the US?	1	Press 1 for HIGH STATUS        Press 2 for LOW STATUS	1
1	030117	14:51:27	test.F	LStest.F	27	394	3	1	+	1	+	1	rfrblue-f.png	4	Is Jenny HIGH or LOW social status in the US?	1	Press 1 for HIGH STATUS        Press 2 for LOW STATUS	1
1	030117	14:51:27	test.F	HStest.F	28	521	2	1	+	1	+	1	rflgreen-f.png	3	Is Erica HIGH or LOW social status in the US?	1	Press 1 for HIGH STATUS        Press 2 for LOW STATUS	1
1	030117	14:51:27	test.F	HStest.F	29	369	2	1	+	1	+	1	rfrgreen-f.png	4	Is Erica HIGH or LOW social status in the US?	1	Press 1 for HIGH STATUS        Press 2 for LOW STATUS	1
1	030117	14:51:27	test.F	LStest.F	30	523	3	1	+	1	+	1	bluefemaleright-f.png	6	Is Jenny HIGH or LOW social status in the US?	1	Press 1 for HIGH STATUS        Press 2 for LOW STATUS	1
1	030117	14:51:27	test.F	LStest.F	31	649	3	1	+	1	+	1	lflblue-f.png	1	Is Jenny HIGH or LOW social status in the US?	1	Press 1 for HIGH STATUS        Press 2 for LOW STATUS	1
1	030117	14:51:27	test.F	HStest.F	32	1358	2	0	+	1	+	1	lflgreen-f.png	1	Is Erica HIGH or LOW social status in the US?	1	Press 1 for HIGH STATUS        Press 2 for LOW STATUS	1
1	030117	14:51:27	test.F	LStest.F	33	657	3	1	+	1	+	1	rflblue-f.png	3	Is Jenny HIGH or LOW social status in the US?	1	Press 1 for HIGH STATUS        Press 2 for LOW STATUS	1
1	030117	14:51:27	test.F	LStest.F	34	966	3	1	+	1	+	1	lfrblue-f.png	2	Is Jenny HIGH or LOW social status in the US?	1	Press 1 for HIGH STATUS        Press 2 for LOW STATUS	1
1	030117	14:51:27	test.F	HStest.F	35	391	2	1	+	1	+	1	greenfemaleright-f.png	6	Is Erica HIGH or LOW social status in the US?	1	Press 1 for HIGH STATUS        Press 2 for LOW STATUS	1
1	030117	14:51:27	test.F	LStest.F	36	550	3	1	+	1	+	1	bluefemaleleft-f.png	5	Is Jenny HIGH or LOW social status in the US?	1	Press 1 for HIGH STATUS        Press 2 for LOW STATUS	1
1	030117	14:51:27	relearn.F	introductions.F	1	1958	57	1	bluefemalefront-f.png	1	bluefemaleleft-f.png	1	bluefemaleright-f.png	1	This is Jenny.  Jenny is low status in the US.  Here, we indicate low status by the color blue.  Please press space bar to continue.	1	0	0
1	030117	14:51:27	relearn.F	introductions.F	2	457	57	1	greenfemalefront-f.png	2	greenfemaleleft-f.png	2	greenfemaleright-f.png	2	This is Erica.  Erica is high status in the US.  Here, we indicate high status by the color green.  Please press space bar to continue.	2	0	0
1	030117	14:51:27	relearn.F	HStest.F	3	976	2	1	+	1	+	1	rfrgreen-f.png	4	Is Erica HIGH or LOW social status in the US?	1	Press 1 for HIGH STATUS        Press 2 for LOW STATUS	1
1	030117	14:51:27	relearn.F	LStest.F	4	700	3	1	+	1	+	1	lflblue-f.png	1	Is Jenny HIGH or LOW social status in the US?	1	Press 1 for HIGH STATUS        Press 2 for LOW STATUS	1
1	030117	14:51:27	relearn.F	HStest.F	5	2263	2	1	+	1	+	1	rflgreen-f.png	3	Is Erica HIGH or LOW social status in the US?	1	Press 1 for HIGH STATUS        Press 2 for LOW STATUS	1
1	030117	14:51:27	relearn.F	LStest.F	6	446	3	1	+	1	+	1	lfrblue-f.png	2	Is Jenny HIGH or LOW social status in the US?	1	Press 1 for HIGH STATUS        Press 2 for LOW STATUS	1
1	030117	14:51:27	relearn.F	HStest.F	7	646	2	1	+	1	+	1	lfrgreen-f.png	2	Is Erica HIGH or LOW social status in the US?	1	Press 1 for HIGH STATUS        Press 2 for LOW STATUS	1
1	030117	14:51:27	relearn.F	LStest.F	8	963	3	1	+	1	+	1	rflblue-f.png	3	Is Jenny HIGH or LOW social status in the US?	1	Press 1 for HIGH STATUS        Press 2 for LOW STATUS	1
1	030117	14:51:27	relearn.F	HStest.F	9	370	2	1	+	1	+	1	greenfemaleright-f.png	6	Is Erica HIGH or LOW social status in the US?	1	Press 1 for HIGH STATUS        Press 2 for LOW STATUS	1
1	030117	14:51:27	relearn.F	HStest.F	10	418	2	1	+	1	+	1	lflgreen-f.png	1	Is Erica HIGH or LOW social status in the US?	1	Press 1 for HIGH STATUS        Press 2 for LOW STATUS	1
1	030117	14:51:27	relearn.F	HStest.F	11	365	2	1	+	1	+	1	greenfemaleleft-f.png	5	Is Erica HIGH or LOW social status in the US?	1	Press 1 for HIGH STATUS        Press 2 for LOW STATUS	1
1	030117	14:51:27	relearn.F	HStest.F	12	385	2	1	+	1	+	1	lfrgreen-f.png	2	Is Erica HIGH or LOW social status in the US?	1	Press 1 for HIGH STATUS        Press 2 for LOW STATUS	1
1	030117	14:51:27	relearn.F	LStest.F	13	294	3	1	+	1	+	1	bluefemaleleft-f.png	5	Is Jenny HIGH or LOW social status in the US?	1	Press 1 for HIGH STATUS        Press 2 for LOW STATUS	1
1	030117	14:51:27	relearn.F	LStest.F	14	312	3	1	+	1	+	1	bluefemaleright-f.png	6	Is Jenny HIGH or LOW social status in the US?	1	Press 1 for HIGH STATUS        Press 2 for LOW STATUS	1
1	030117	14:51:27	relearn.F	HStest.F	15	474	2	1	+	1	+	1	rfrgreen-f.png	4	Is Erica HIGH or LOW social status in the US?	1	Press 1 for HIGH STATUS        Press 2 for LOW STATUS	1
1	030117	14:51:27	relearn.F	HStest.F	16	371	2	1	+	1	+	1	greenfemaleright-f.png	6	Is Erica HIGH or LOW social status in the US?	1	Press 1 for HIGH STATUS        Press 2 for LOW STATUS	1
1	030117	14:51:27	relearn.F	HStest.F	17	455	2	1	+	1	+	1	lflgreen-f.png	1	Is Erica HIGH or LOW social status in the US?	1	Press 1 for HIGH STATUS        Press 2 for LOW STATUS	1
1	030117	14:51:27	relearn.F	LStest.F	18	520	3	1	+	1	+	1	rfrblue-f.png	4	Is Jenny HIGH or LOW social status in the US?	1	Press 1 for HIGH STATUS        Press 2 for LOW STATUS	1
1	030117	14:51:27	relearn.F	LStest.F	19	327	3	1	+	1	+	1	rfrblue-f.png	4	Is Jenny HIGH or LOW social status in the US?	1	Press 1 for HIGH STATUS        Press 2 for LOW STATUS	1
1	030117	14:51:27	relearn.F	HStest.F	20	431	2	1	+	1	+	1	rflgreen-f.png	3	Is Erica HIGH or LOW social status in the US?	1	Press 1 for HIGH STATUS        Press 2 for LOW STATUS	1
1	030117	14:51:27	relearn.F	HStest.F	21	422	2	1	+	1	+	1	greenfemaleleft-f.png	5	Is Erica HIGH or LOW social status in the US?	1	Press 1 for HIGH STATUS        Press 2 for LOW STATUS	1
1	030117	14:51:27	relearn.F	LStest.F	22	361	3	1	+	1	+	1	lfrblue-f.png	2	Is Jenny HIGH or LOW social status in the US?	1	Press 1 for HIGH STATUS        Press 2 for LOW STATUS	1
1	030117	14:51:27	relearn.F	LStest.F	23	578	3	1	+	1	+	1	bluefemaleright-f.png	6	Is Jenny HIGH or LOW social status in the US?	1	Press 1 for HIGH STATUS        Press 2 for LOW STATUS	1
1	030117	14:51:27	relearn.F	HStest.F	24	446	2	1	+	1	+	1	greenfemaleleft-f.png	5	Is Erica HIGH or LOW social status in the US?	1	Press 1 for HIGH STATUS        Press 2 for LOW STATUS	1
1	030117	14:51:27	relearn.F	HStest.F	25	493	2	1	+	1	+	1	lfrgreen-f.png	2	Is Erica HIGH or LOW social status in the US?	1	Press 1 for HIGH STATUS        Press 2 for LOW STATUS	1
1	030117	14:51:27	relearn.F	LStest.F	26	1538	3	1	+	1	+	1	bluefemaleleft-f.png	5	Is Jenny HIGH or LOW social status in the US?	1	Press 1 for HIGH STATUS        Press 2 for LOW STATUS	1
1	030117	14:51:27	relearn.F	LStest.F	27	338	3	1	+	1	+	1	rflblue-f.png	3	Is Jenny HIGH or LOW social status in the US?	1	Press 1 for HIGH STATUS        Press 2 for LOW STATUS	1
1	030117	14:51:27	relearn.F	HStest.F	28	383	2	1	+	1	+	1	greenfemaleright-f.png	6	Is Erica HIGH or LOW social status in the US?	1	Press 1 for HIGH STATUS        Press 2 for LOW STATUS	1
1	030117	14:51:27	relearn.F	LStest.F	29	587	3	1	+	1	+	1	lflblue-f.png	1	Is Jenny HIGH or LOW social status in the US?	1	Press 1 for HIGH STATUS        Press 2 for LOW STATUS	1
1	030117	14:51:27	relearn.F	LStest.F	30	392	3	1	+	1	+	1	bluefemaleright-f.png	6	Is Jenny HIGH or LOW social status in the US?	1	Press 1 for HIGH STATUS        Press 2 for LOW STATUS	1
1	030117	14:51:27	relearn.F	HStest.F	31	412	2	1	+	1	+	1	rflgreen-f.png	3	Is Erica HIGH or LOW social status in the US?	1	Press 1 for HIGH STATUS        Press 2 for LOW STATUS	1
1	030117	14:51:27	relearn.F	HStest.F	32	395	2	1	+	1	+	1	lflgreen-f.png	1	Is Erica HIGH or LOW social status in the US?	1	Press 1 for HIGH STATUS        Press 2 for LOW STATUS	1
1	030117	14:51:27	relearn.F	LStest.F	33	446	3	1	+	1	+	1	rflblue-f.png	3	Is Jenny HIGH or LOW social status in the US?	1	Press 1 for HIGH STATUS        Press 2 for LOW STATUS	1
1	030117	14:51:27	relearn.F	HStest.F	34	422	2	1	+	1	+	1	rfrgreen-f.png	4	Is Erica HIGH or LOW social status in the US?	1	Press 1 for HIGH STATUS        Press 2 for LOW STATUS	1
1	030117	14:51:27	relearn.F	LStest.F	35	378	3	1	+	1	+	1	lflblue-f.png	1	Is Jenny HIGH or LOW social status in the US?	1	Press 1 for HIGH STATUS        Press 2 for LOW STATUS	1
1	030117	14:51:27	relearn.F	LStest.F	36	540	3	1	+	1	+	1	lfrblue-f.png	2	Is Jenny HIGH or LOW social status in the US?	1	Press 1 for HIGH STATUS        Press 2 for LOW STATUS	1
1	030117	14:51:27	relearn.F	LStest.F	37	661	3	1	+	1	+	1	bluefemaleleft-f.png	5	Is Jenny HIGH or LOW social status in the US?	1	Press 1 for HIGH STATUS        Press 2 for LOW STATUS	1
1	030117	14:51:27	relearn.F	LStest.F	38	820	3	1	+	1	+	1	rfrblue-f.png	4	Is Jenny HIGH or LOW social status in the US?	1	Press 1 for HIGH STATUS        Press 2 for LOW STATUS	1
