subject	date	time	blockcode	trialcode	trialnum	latency	response	correct	stimulusitem1	stimulusnumber1	stimulusitem2	stimulusnumber2	stimulusitem3	stimulusnumber3	stimulusitem4	stimulusnumber4	stimulusitem5	stimulusnumber5
1	030117	14:18:10	introductions1.M	introductions.M	1	28368	57	1	bluemalefront-m.png	1	bluemaleleft-m.png	1	bluemaleright-m.png	1	Meet James.  James’s father worked as a mechanic and his mother worked part time as a waitress at a local restaurant chain.  After graduating with his high school diploma, James started working in cleaning services as a janitor at Mall One.  Although James’s residential neighborhood is far from the mall, most of his neighbors have also found similar low-level positions in service, retail, and restaurant businesses requiring a lengthy commute.  Recently, some of James’s neighbors have started renting in a new neighborhood where the traffic on their evening commute is much lighter.  However, James fits in well in his neighborhood, even if it may not be the most appealing location for commuters.  Plus, he feels confident that he can manage with the increasing traffic on his evening commute.  James is represented by the color blue.  Please press space bar to continue.	1	0	0
1	030117	14:18:10	introductions1.M	introductions.M	2	19532	57	1	greenmalefront-m.png	2	greenmaleleft-m.png	2	greenmaleright-m.png	2	Meet Eric.  Eric’s father worked as a head accountant and his mother worked part time as an interior design consultant.  After graduating with his Master’s degree in business administration, Eric started working as the director of operations at Mall One.  Although Eric’s residential gated community is far from the mall, most of his neighbors have also found similar upper-level management positions in locally headquartered corporations requiring a lengthy commute.  Recently, some of Eric’s neighbors have bought homes in a new gated community where the traffic on their evening commute is much lighter.  However, Eric fits in well in his gated community, even if it may not be the most coveted location for commuters.  Plus, he feels confident that he can manage with the increasing traffic on his evening commute.  Eric is represented by the color green.  Please press space bar to continue.	2	0	0
1	030117	14:18:10	introductions2.M	HSlearning.M	1	3805	57	1	+	1	+	1	rfrgreen-m.png	4	Eric  (Employment: Director)  Please press space bar to continue.	1	0	0
1	030117	14:18:10	introductions2.M	HSlearning.M	2	1004	57	1	+	1	+	1	lfrgreen-m.png	2	Eric  (Employment: Director)  Please press space bar to continue.	1	0	0
1	030117	14:18:10	introductions2.M	HSlearning.M	3	638	57	1	+	1	+	1	greenmaleleft-m.png	5	Eric  (Employment: Director)  Please press space bar to continue.	1	0	0
1	030117	14:18:10	introductions2.M	LSlearning.M	4	1487	57	1	+	1	+	1	lfrblue-m.png	2	James  (Employment: Janitor)  Please press space bar to continue.	1	0	0
1	030117	14:18:10	introductions2.M	HSlearning.M	5	1028	57	1	+	1	+	1	lflgreen-m.png	1	Eric  (Employment: Director)  Please press space bar to continue.	1	0	0
1	030117	14:18:10	introductions2.M	LSlearning.M	6	743	57	1	+	1	+	1	lflblue-m.png	1	James  (Employment: Janitor)  Please press space bar to continue.	1	0	0
1	030117	14:18:10	introductions2.M	LSlearning.M	7	1168	57	1	+	1	+	1	bluemaleleft-m.png	5	James  (Employment: Janitor)  Please press space bar to continue.	1	0	0
1	030117	14:18:10	introductions2.M	LSlearning.M	8	905	57	1	+	1	+	1	rfrblue-m.png	4	James  (Employment: Janitor)  Please press space bar to continue.	1	0	0
1	030117	14:18:10	introductions2.M	LSlearning.M	9	632	57	1	+	1	+	1	rflblue-m.png	3	James  (Employment: Janitor)  Please press space bar to continue.	1	0	0
1	030117	14:18:10	introductions2.M	LSlearning.M	10	557	57	1	+	1	+	1	bluemaleright-m.png	6	James  (Employment: Janitor)  Please press space bar to continue.	1	0	0
1	030117	14:18:10	introductions2.M	HSlearning.M	11	597	57	1	+	1	+	1	greenmaleright-m.png	6	Eric  (Employment: Director)  Please press space bar to continue.	1	0	0
1	030117	14:18:10	introductions2.M	HSlearning.M	12	467	57	1	+	1	+	1	rflgreen-m.png	3	Eric  (Employment: Director)  Please press space bar to continue.	1	0	0
1	030117	14:18:10	test.M	LStest.M	1	1741	3	1	+	1	+	1	rflblue-m.png	3	This person works as the mall janitor.  What is this person's name?	1	Press 1 for Eric        Press 2 for James	1
1	030117	14:18:10	test.M	HStest.M	2	1323	2	1	+	1	+	1	lflgreen-m.png	1	This person works as the mall director.  What is this person's name?	1	Press 1 for Eric        Press 2 for James	1
1	030117	14:18:10	test.M	LStest.M	3	864	3	1	+	1	+	1	lfrblue-m.png	2	This person works as the mall janitor.  What is this person's name?	1	Press 1 for Eric        Press 2 for James	1
1	030117	14:18:10	test.M	HStest.M	4	770	2	1	+	1	+	1	lfrgreen-m.png	2	This person works as the mall director.  What is this person's name?	1	Press 1 for Eric        Press 2 for James	1
1	030117	14:18:10	test.M	LStest.M	5	1313	3	1	+	1	+	1	bluemaleleft-m.png	5	This person works as the mall janitor.  What is this person's name?	1	Press 1 for Eric        Press 2 for James	1
1	030117	14:18:10	test.M	HStest.M	6	583	2	1	+	1	+	1	greenmaleright-m.png	6	This person works as the mall director.  What is this person's name?	1	Press 1 for Eric        Press 2 for James	1
1	030117	14:18:10	test.M	LStest.M	7	469	3	1	+	1	+	1	rfrblue-m.png	4	This person works as the mall janitor.  What is this person's name?	1	Press 1 for Eric        Press 2 for James	1
1	030117	14:18:10	test.M	HStest.M	8	743	2	1	+	1	+	1	greenmaleleft-m.png	5	This person works as the mall director.  What is this person's name?	1	Press 1 for Eric        Press 2 for James	1
1	030117	14:18:10	test.M	LStest.M	9	665	3	1	+	1	+	1	bluemaleright-m.png	6	This person works as the mall janitor.  What is this person's name?	1	Press 1 for Eric        Press 2 for James	1
1	030117	14:18:10	test.M	LStest.M	10	802	3	1	+	1	+	1	lflblue-m.png	1	This person works as the mall janitor.  What is this person's name?	1	Press 1 for Eric        Press 2 for James	1
1	030117	14:18:10	test.M	LStest.M	11	357	3	1	+	1	+	1	rfrblue-m.png	4	This person works as the mall janitor.  What is this person's name?	1	Press 1 for Eric        Press 2 for James	1
1	030117	14:18:10	test.M	LStest.M	12	496	3	1	+	1	+	1	bluemaleright-m.png	6	This person works as the mall janitor.  What is this person's name?	1	Press 1 for Eric        Press 2 for James	1
1	030117	14:18:10	test.M	HStest.M	13	384	2	1	+	1	+	1	rflgreen-m.png	3	This person works as the mall director.  What is this person's name?	1	Press 1 for Eric        Press 2 for James	1
1	030117	14:18:10	test.M	HStest.M	14	411	2	1	+	1	+	1	rfrgreen-m.png	4	This person works as the mall director.  What is this person's name?	1	Press 1 for Eric        Press 2 for James	1
1	030117	14:18:10	test.M	HStest.M	15	512	2	1	+	1	+	1	rflgreen-m.png	3	This person works as the mall director.  What is this person's name?	1	Press 1 for Eric        Press 2 for James	1
1	030117	14:18:10	test.M	LStest.M	16	427	3	1	+	1	+	1	lflblue-m.png	1	This person works as the mall janitor.  What is this person's name?	1	Press 1 for Eric        Press 2 for James	1
1	030117	14:18:10	test.M	LStest.M	17	541	3	1	+	1	+	1	bluemaleleft-m.png	5	This person works as the mall janitor.  What is this person's name?	1	Press 1 for Eric        Press 2 for James	1
1	030117	14:18:10	test.M	HStest.M	18	463	2	1	+	1	+	1	lflgreen-m.png	1	This person works as the mall director.  What is this person's name?	1	Press 1 for Eric        Press 2 for James	1
1	030117	14:18:10	test.M	HStest.M	19	573	2	1	+	1	+	1	lfrgreen-m.png	2	This person works as the mall director.  What is this person's name?	1	Press 1 for Eric        Press 2 for James	1
1	030117	14:18:10	test.M	HStest.M	20	1205	2	1	+	1	+	1	rfrgreen-m.png	4	This person works as the mall director.  What is this person's name?	1	Press 1 for Eric        Press 2 for James	1
1	030117	14:18:10	test.M	LStest.M	21	389	3	1	+	1	+	1	rflblue-m.png	3	This person works as the mall janitor.  What is this person's name?	1	Press 1 for Eric        Press 2 for James	1
1	030117	14:18:10	test.M	LStest.M	22	282	3	1	+	1	+	1	lfrblue-m.png	2	This person works as the mall janitor.  What is this person's name?	1	Press 1 for Eric        Press 2 for James	1
1	030117	14:18:10	test.M	LStest.M	23	409	3	1	+	1	+	1	bluemaleright-m.png	6	This person works as the mall janitor.  What is this person's name?	1	Press 1 for Eric        Press 2 for James	1
1	030117	14:18:10	test.M	HStest.M	24	423	2	1	+	1	+	1	greenmaleleft-m.png	5	This person works as the mall director.  What is this person's name?	1	Press 1 for Eric        Press 2 for James	1
1	030117	14:18:10	test.M	LStest.M	25	459	3	1	+	1	+	1	bluemaleleft-m.png	5	This person works as the mall janitor.  What is this person's name?	1	Press 1 for Eric        Press 2 for James	1
1	030117	14:18:10	test.M	HStest.M	26	350	2	1	+	1	+	1	greenmaleright-m.png	6	This person works as the mall director.  What is this person's name?	1	Press 1 for Eric        Press 2 for James	1
1	030117	14:18:10	test.M	LStest.M	27	654	3	1	+	1	+	1	rflblue-m.png	3	This person works as the mall janitor.  What is this person's name?	1	Press 1 for Eric        Press 2 for James	1
1	030117	14:18:10	test.M	HStest.M	28	477	2	1	+	1	+	1	lflgreen-m.png	1	This person works as the mall director.  What is this person's name?	1	Press 1 for Eric        Press 2 for James	1
1	030117	14:18:10	test.M	HStest.M	29	1023	2	1	+	1	+	1	rfrgreen-m.png	4	This person works as the mall director.  What is this person's name?	1	Press 1 for Eric        Press 2 for James	1
1	030117	14:18:10	test.M	HStest.M	30	683	2	1	+	1	+	1	greenmaleright-m.png	6	This person works as the mall director.  What is this person's name?	1	Press 1 for Eric        Press 2 for James	1
1	030117	14:18:10	test.M	LStest.M	31	771	3	1	+	1	+	1	lflblue-m.png	1	This person works as the mall janitor.  What is this person's name?	1	Press 1 for Eric        Press 2 for James	1
1	030117	14:18:10	test.M	HStest.M	32	659	2	1	+	1	+	1	greenmaleleft-m.png	5	This person works as the mall director.  What is this person's name?	1	Press 1 for Eric        Press 2 for James	1
1	030117	14:18:10	test.M	LStest.M	33	378	3	1	+	1	+	1	rfrblue-m.png	4	This person works as the mall janitor.  What is this person's name?	1	Press 1 for Eric        Press 2 for James	1
1	030117	14:18:10	test.M	HStest.M	34	420	2	1	+	1	+	1	rflgreen-m.png	3	This person works as the mall director.  What is this person's name?	1	Press 1 for Eric        Press 2 for James	1
1	030117	14:18:10	test.M	HStest.M	35	355	2	1	+	1	+	1	lfrgreen-m.png	2	This person works as the mall director.  What is this person's name?	1	Press 1 for Eric        Press 2 for James	1
1	030117	14:18:10	test.M	LStest.M	36	388	3	1	+	1	+	1	lfrblue-m.png	2	This person works as the mall janitor.  What is this person's name?	1	Press 1 for Eric        Press 2 for James	1
1	030117	14:18:10	relearn.M	introductions.M	1	9495	57	1	greenmalefront-m.png	2	greenmaleleft-m.png	2	greenmaleright-m.png	2	Meet Eric.  Eric’s father worked as a head accountant and his mother worked part time as an interior design consultant.  After graduating with his Master’s degree in business administration, Eric started working as the director of operations at Mall One.  Although Eric’s residential gated community is far from the mall, most of his neighbors have also found similar upper-level management positions in locally headquartered corporations requiring a lengthy commute.  Recently, some of Eric’s neighbors have bought homes in a new gated community where the traffic on their evening commute is much lighter.  However, Eric fits in well in his gated community, even if it may not be the most coveted location for commuters.  Plus, he feels confident that he can manage with the increasing traffic on his evening commute.  Eric is represented by the color green.  Please press space bar to continue.	2	0	0
1	030117	14:18:10	relearn.M	introductions.M	2	2268	57	1	bluemalefront-m.png	1	bluemaleleft-m.png	1	bluemaleright-m.png	1	Meet James.  James’s father worked as a mechanic and his mother worked part time as a waitress at a local restaurant chain.  After graduating with his high school diploma, James started working in cleaning services as a janitor at Mall One.  Although James’s residential neighborhood is far from the mall, most of his neighbors have also found similar low-level positions in service, retail, and restaurant businesses requiring a lengthy commute.  Recently, some of James’s neighbors have started renting in a new neighborhood where the traffic on their evening commute is much lighter.  However, James fits in well in his neighborhood, even if it may not be the most appealing location for commuters.  Plus, he feels confident that he can manage with the increasing traffic on his evening commute.  James is represented by the color blue.  Please press space bar to continue.	1	0	0
1	030117	14:18:10	relearn.M	LStest.M	3	1242	3	1	+	1	+	1	lflblue-m.png	1	This person works as the mall janitor.  What is this person's name?	1	Press 1 for Eric        Press 2 for James	1
1	030117	14:18:10	relearn.M	LStest.M	4	415	3	1	+	1	+	1	bluemaleright-m.png	6	This person works as the mall janitor.  What is this person's name?	1	Press 1 for Eric        Press 2 for James	1
1	030117	14:18:10	relearn.M	HStest.M	5	419	2	1	+	1	+	1	rflgreen-m.png	3	This person works as the mall director.  What is this person's name?	1	Press 1 for Eric        Press 2 for James	1
1	030117	14:18:10	relearn.M	LStest.M	6	447	3	1	+	1	+	1	rfrblue-m.png	4	This person works as the mall janitor.  What is this person's name?	1	Press 1 for Eric        Press 2 for James	1
1	030117	14:18:10	relearn.M	HStest.M	7	464	2	1	+	1	+	1	greenmaleleft-m.png	5	This person works as the mall director.  What is this person's name?	1	Press 1 for Eric        Press 2 for James	1
1	030117	14:18:10	relearn.M	LStest.M	8	528	3	1	+	1	+	1	bluemaleleft-m.png	5	This person works as the mall janitor.  What is this person's name?	1	Press 1 for Eric        Press 2 for James	1
1	030117	14:18:10	relearn.M	LStest.M	9	651	3	1	+	1	+	1	lfrblue-m.png	2	This person works as the mall janitor.  What is this person's name?	1	Press 1 for Eric        Press 2 for James	1
1	030117	14:18:10	relearn.M	HStest.M	10	495	2	1	+	1	+	1	rfrgreen-m.png	4	This person works as the mall director.  What is this person's name?	1	Press 1 for Eric        Press 2 for James	1
1	030117	14:18:10	relearn.M	LStest.M	11	754	3	1	+	1	+	1	rflblue-m.png	3	This person works as the mall janitor.  What is this person's name?	1	Press 1 for Eric        Press 2 for James	1
1	030117	14:18:10	relearn.M	HStest.M	12	750	2	1	+	1	+	1	greenmaleright-m.png	6	This person works as the mall director.  What is this person's name?	1	Press 1 for Eric        Press 2 for James	1
1	030117	14:18:10	relearn.M	HStest.M	13	355	2	1	+	1	+	1	lfrgreen-m.png	2	This person works as the mall director.  What is this person's name?	1	Press 1 for Eric        Press 2 for James	1
1	030117	14:18:10	relearn.M	LStest.M	14	461	3	1	+	1	+	1	rfrblue-m.png	4	This person works as the mall janitor.  What is this person's name?	1	Press 1 for Eric        Press 2 for James	1
1	030117	14:18:10	relearn.M	LStest.M	15	611	3	1	+	1	+	1	lflblue-m.png	1	This person works as the mall janitor.  What is this person's name?	1	Press 1 for Eric        Press 2 for James	1
1	030117	14:18:10	relearn.M	HStest.M	16	501	2	1	+	1	+	1	lflgreen-m.png	1	This person works as the mall director.  What is this person's name?	1	Press 1 for Eric        Press 2 for James	1
1	030117	14:18:10	relearn.M	HStest.M	17	404	2	1	+	1	+	1	greenmaleright-m.png	6	This person works as the mall director.  What is this person's name?	1	Press 1 for Eric        Press 2 for James	1
1	030117	14:18:10	relearn.M	HStest.M	18	353	2	1	+	1	+	1	greenmaleleft-m.png	5	This person works as the mall director.  What is this person's name?	1	Press 1 for Eric        Press 2 for James	1
1	030117	14:18:10	relearn.M	HStest.M	19	660	2	1	+	1	+	1	rfrgreen-m.png	4	This person works as the mall director.  What is this person's name?	1	Press 1 for Eric        Press 2 for James	1
1	030117	14:18:10	relearn.M	LStest.M	20	380	3	1	+	1	+	1	bluemaleleft-m.png	5	This person works as the mall janitor.  What is this person's name?	1	Press 1 for Eric        Press 2 for James	1
1	030117	14:18:10	relearn.M	HStest.M	21	527	2	1	+	1	+	1	rflgreen-m.png	3	This person works as the mall director.  What is this person's name?	1	Press 1 for Eric        Press 2 for James	1
1	030117	14:18:10	relearn.M	LStest.M	22	496	3	1	+	1	+	1	lfrblue-m.png	2	This person works as the mall janitor.  What is this person's name?	1	Press 1 for Eric        Press 2 for James	1
1	030117	14:18:10	relearn.M	HStest.M	23	578	2	1	+	1	+	1	lflgreen-m.png	1	This person works as the mall director.  What is this person's name?	1	Press 1 for Eric        Press 2 for James	1
1	030117	14:18:10	relearn.M	LStest.M	24	420	3	1	+	1	+	1	rflblue-m.png	3	This person works as the mall janitor.  What is this person's name?	1	Press 1 for Eric        Press 2 for James	1
1	030117	14:18:10	relearn.M	HStest.M	25	363	2	1	+	1	+	1	lfrgreen-m.png	2	This person works as the mall director.  What is this person's name?	1	Press 1 for Eric        Press 2 for James	1
1	030117	14:18:10	relearn.M	LStest.M	26	375	3	1	+	1	+	1	bluemaleright-m.png	6	This person works as the mall janitor.  What is this person's name?	1	Press 1 for Eric        Press 2 for James	1
1	030117	14:18:10	relearn.M	HStest.M	27	431	2	1	+	1	+	1	greenmaleleft-m.png	5	This person works as the mall director.  What is this person's name?	1	Press 1 for Eric        Press 2 for James	1
1	030117	14:18:10	relearn.M	LStest.M	28	657	3	1	+	1	+	1	lflblue-m.png	1	This person works as the mall janitor.  What is this person's name?	1	Press 1 for Eric        Press 2 for James	1
1	030117	14:18:10	relearn.M	HStest.M	29	612	2	1	+	1	+	1	greenmaleright-m.png	6	This person works as the mall director.  What is this person's name?	1	Press 1 for Eric        Press 2 for James	1
1	030117	14:18:10	relearn.M	LStest.M	30	505	3	1	+	1	+	1	bluemaleleft-m.png	5	This person works as the mall janitor.  What is this person's name?	1	Press 1 for Eric        Press 2 for James	1
1	030117	14:18:10	relearn.M	LStest.M	31	877	3	1	+	1	+	1	bluemaleright-m.png	6	This person works as the mall janitor.  What is this person's name?	1	Press 1 for Eric        Press 2 for James	1
1	030117	14:18:10	relearn.M	LStest.M	32	1824	3	1	+	1	+	1	lfrblue-m.png	2	This person works as the mall janitor.  What is this person's name?	1	Press 1 for Eric        Press 2 for James	1
1	030117	14:18:10	relearn.M	HStest.M	33	2267	2	1	+	1	+	1	lflgreen-m.png	1	This person works as the mall director.  What is this person's name?	1	Press 1 for Eric        Press 2 for James	1
1	030117	14:18:10	relearn.M	HStest.M	34	377	2	1	+	1	+	1	rflgreen-m.png	3	This person works as the mall director.  What is this person's name?	1	Press 1 for Eric        Press 2 for James	1
1	030117	14:18:10	relearn.M	HStest.M	35	392	2	1	+	1	+	1	rfrgreen-m.png	4	This person works as the mall director.  What is this person's name?	1	Press 1 for Eric        Press 2 for James	1
1	030117	14:18:10	relearn.M	LStest.M	36	402	3	1	+	1	+	1	rflblue-m.png	3	This person works as the mall janitor.  What is this person's name?	1	Press 1 for Eric        Press 2 for James	1
1	030117	14:18:10	relearn.M	HStest.M	37	1012	2	1	+	1	+	1	lfrgreen-m.png	2	This person works as the mall director.  What is this person's name?	1	Press 1 for Eric        Press 2 for James	1
1	030117	14:18:10	relearn.M	LStest.M	38	372	3	1	+	1	+	1	rfrblue-m.png	4	This person works as the mall janitor.  What is this person's name?	1	Press 1 for Eric        Press 2 for James	1
