build	date	time	subject	group	blocknum	blockcode	trialnum	trialcode	response	correct	latency	stimulusnumber1	stimulusitem1	stimulusnumber2	stimulusitem2	stimulusnumber3	stimulusitem3	stimulusnumber4	stimulusitem4	stimulusnumber5	stimulusitem5	stimulusnumber6	stimulusitem6	stimulusnumber7	stimulusitem7	stimulusnumber8	stimulusitem8	stimulusnumber9	stimulusitem9	stimulusnumber10	stimulusitem10	stimulusnumber11	stimulusitem11	stimulusnumber12	stimulusitem12
4.0.8.0	092617	16:02:30	999	1	1	3PP3PPTaskInstructions.M	1	instruct1.M	57	1	1140	1	PERSPECTIVES TASK     Thank you for your participation thusfar.    You will now complete a series of tasks that require you to view a three dimensional (3D) space from different perspectives.	1	Please press space bar to continue.	1	blankav.png	0	0	0	0	0	0	0	0	0	0	0	0	0	0	0	0	0	0
4.0.8.0	092617	16:02:30	999	1	1	3PP3PPTaskInstructions.M	2	instruct1.M	57	1	363	2	On each trial, you will view a 3D environment with the avatars representing James (Auto Mechanic) and Eric (Auto Dealership Director).    Opposite the two avatars on the far wall of the 3D space, you will see a total of four dots.  You will also see some visual barriers perpendicular to the back wall.	2	Please press space bar to see an example of this 3D space.	2	blankav.png	0	0	0	0	0	0	0	0	0	0	0	0	0	0	0	0	0	0
4.0.8.0	092617	16:02:30	999	1	1	3PP3PPTaskInstructions.M	3	instruct1.M	3	0	1964	3	3D SPACE EXAMPLE, PART 1:    Note that the avatar on the left can only see the two dots in the middle; the dots on the far left and far right are obscured by the barriers.  Remember that avatars can only ever see dots in the direction that they are facing.	3	How many dots can the avatar on the right see?  Press 1 or 2.	3	example-m.jpg	0	0	0	0	0	0	0	0	0	0	0	0	0	0	0	0	0	0
4.0.8.0	092617	16:02:30	999	1	1	3PP3PPTaskInstructions.M	4	instruct1.M	57	1	1289	4	Let's get some more practice taking perspectives in this 3D environment.    In the next few slides, we will present you with just one avatar within the 3D environment. All you need to do is indicate how many dots that avatar can see by pressing the 1 or 2 key on your keyboard.	4	Please press space bar to continue.	4	blankav.png	0	0	0	0	0	0	0	0	0	0	0	0	0	0	0	0	0	0
4.0.8.0	092617	16:02:30	999	1	1	3PP3PPTaskInstructions.M	5	instruct1.M	57	1	1045	5	Remember: Even though you personally can see all the dots, the avatars can see dots on only one side of any given barrier--including the barrier on their own side.	5	Please press space bar to continue.	5	blankav.png	0	0	0	0	0	0	0	0	0	0	0	0	0	0	0	0	0	0
4.0.8.0	092617	16:02:30	999	1	1	3PP3PPTaskInstructions.M	6	introtask.LS.M	3	0	343	1	+   +	1	+   +	1	+ +	1	+ +	1	+	8	3578.jpg	8	blankav.png	8	lfrblue-m.png	1	Incorrect:   Remember that avatars can see only dots in the area they are facing; they see only one side of their nearest barrier.  Pay close attention to the direction the avatar is facing.	0	0	0	0	0	0
4.0.8.0	092617	16:02:30	999	1	1	3PP3PPTaskInstructions.M	7	introtask.LS.M	3	1	460	1	+   +	1	+   +	1	+ +	1	+ +	1	+	7	3568.jpg	7	rflblue-m.png	7	blankav.png	0	0	0	0	0	0	0	0
4.0.8.0	092617	16:02:30	999	1	1	3PP3PPTaskInstructions.M	8	introtask.HS.M	2	0	382	1	+   +	1	+   +	1	+ +	1	+ +	1	+	4	2457.jpg	4	blankav.png	4	lfrgreen-m.png	1	Incorrect:   Remember that avatars can see only dots in the area they are facing; they see only one side of their nearest barrier.  Pay close attention to the direction the avatar is facing.	0	0	0	0	0	0
4.0.8.0	092617	16:02:30	999	1	1	3PP3PPTaskInstructions.M	9	introtask.LS.M	2	1	389	1	+   +	1	+   +	1	+ +	1	+ +	1	+	1	1357.jpg	1	rflblue-m.png	1	blankav.png	0	0	0	0	0	0	0	0
4.0.8.0	092617	16:02:30	999	1	1	3PP3PPTaskInstructions.M	10	introtask.HS.M	3	1	342	1	+   +	1	+   +	1	+ +	1	+ +	1	+	5	3457.jpg	5	rflgreen-m.png	5	blankav.png	0	0	0	0	0	0	0	0
4.0.8.0	092617	16:02:30	999	1	1	3PP3PPTaskInstructions.M	11	introtask.LS.M	3	0	348	1	+   +	1	+   +	1	+ +	1	+ +	1	+	3	2358.jpg	3	rflblue-m.png	3	blankav.png	1	Incorrect:   Remember that avatars can see only dots in the area they are facing; they see only one side of their nearest barrier.  Pay close attention to the direction the avatar is facing.	0	0	0	0	0	0
4.0.8.0	092617	16:02:30	999	1	1	3PP3PPTaskInstructions.M	12	introtask.HS.M	2	1	422	1	+   +	1	+   +	1	+ +	1	+ +	1	+	1	1357.jpg	1	rflgreen-m.png	1	blankav.png	0	0	0	0	0	0	0	0
4.0.8.0	092617	16:02:30	999	1	1	3PP3PPTaskInstructions.M	13	introtask.LS.M	3	1	363	1	+   +	1	+   +	1	+ +	1	+ +	1	+	5	3457.jpg	5	rflblue-m.png	5	blankav.png	0	0	0	0	0	0	0	0
4.0.8.0	092617	16:02:30	999	1	1	3PP3PPTaskInstructions.M	14	introtask.HS.M	2	1	371	1	+   +	1	+   +	1	+ +	1	+ +	1	+	3	2358.jpg	3	rflgreen-m.png	3	blankav.png	0	0	0	0	0	0	0	0
4.0.8.0	092617	16:02:30	999	1	1	3PP3PPTaskInstructions.M	15	introtask.HS.M	2	1	429	1	+   +	1	+   +	1	+ +	1	+ +	1	+	8	3578.jpg	8	blankav.png	8	lfrgreen-m.png	0	0	0	0	0	0	0	0
4.0.8.0	092617	16:02:30	999	1	1	3PP3PPTaskInstructions.M	16	introtask.LS.M	3	1	439	1	+   +	1	+   +	1	+ +	1	+ +	1	+	4	2457.jpg	4	blankav.png	4	lfrblue-m.png	0	0	0	0	0	0	0	0
4.0.8.0	092617	16:02:30	999	1	1	3PP3PPTaskInstructions.M	17	introtask.LS.M	2	1	349	1	+   +	1	+   +	1	+ +	1	+ +	1	+	2	2357.jpg	2	blankav.png	2	lfrblue-m.png	0	0	0	0	0	0	0	0
4.0.8.0	092617	16:02:30	999	1	1	3PP3PPTaskInstructions.M	18	introtask.HS.M	3	1	349	1	+   +	1	+   +	1	+ +	1	+ +	1	+	7	3568.jpg	7	rflgreen-m.png	7	blankav.png	0	0	0	0	0	0	0	0
4.0.8.0	092617	16:02:30	999	1	1	3PP3PPTaskInstructions.M	19	introtask.LS.M	3	1	317	1	+   +	1	+   +	1	+ +	1	+ +	1	+	6	3567.jpg	6	blankav.png	6	lfrblue-m.png	0	0	0	0	0	0	0	0
4.0.8.0	092617	16:02:30	999	1	1	3PP3PPTaskInstructions.M	20	introtask.HS.M	3	1	299	1	+   +	1	+   +	1	+ +	1	+ +	1	+	6	3567.jpg	6	blankav.png	6	lfrgreen-m.png	0	0	0	0	0	0	0	0
4.0.8.0	092617	16:02:30	999	1	1	3PP3PPTaskInstructions.M	21	introtask.LS.M	2	1	357	1	+   +	1	+   +	1	+ +	1	+ +	1	+	10	3589.jpg	10	blankav.png	10	lfrblue-m.png	0	0	0	0	0	0	0	0
4.0.8.0	092617	16:02:30	999	1	1	3PP3PPTaskInstructions.M	22	introtask.HS.M	2	1	366	1	+   +	1	+   +	1	+ +	1	+ +	1	+	10	3589.jpg	10	blankav.png	10	lfrgreen-m.png	0	0	0	0	0	0	0	0
4.0.8.0	092617	16:02:30	999	1	1	3PP3PPTaskInstructions.M	23	introtask.HS.M	2	1	342	1	+   +	1	+   +	1	+ +	1	+ +	1	+	2	2357.jpg	2	blankav.png	2	lfrgreen-m.png	0	0	0	0	0	0	0	0
4.0.8.0	092617	16:02:30	999	1	1	3PP3PPTaskInstructions.M	24	introtask.LS.M	2	1	385	1	+   +	1	+   +	1	+ +	1	+ +	1	+	9	3579.jpg	9	rflblue-m.png	9	blankav.png	0	0	0	0	0	0	0	0
4.0.8.0	092617	16:02:30	999	1	1	3PP3PPTaskInstructions.M	25	introtask.HS.M	2	1	302	1	+   +	1	+   +	1	+ +	1	+ +	1	+	9	3579.jpg	9	rflgreen-m.png	9	blankav.png	0	0	0	0	0	0	0	0
4.0.8.0	092617	16:02:30	999	1	1	3PP3PPTaskInstructions.M	26	instruct2	57	1	1334	1	Now that you're familiar with the 3D environment, let's continue to a slightly more difficult task.    Before viewing the 3D environment on each trial, you will see a brief prompt. The prompt will indicate which target's perspective you will be taking in that trial.    Your task is to determine how many dots the prompted avatar can see.	1	Please press space bar to continue.	0	0	0	0	0	0	0	0	0	0	0	0	0	0	0	0	0	0	0	0
4.0.8.0	092617	16:02:30	999	1	1	3PP3PPTaskInstructions.M	27	instruct2	57	1	402	2	TRIAL EXAMPLE:    The prompt says you should take James's (Auto Mechanic, blue avatar) perspective. In the 3D space that follows, James's avatar sees exactly two dots. In this case, you would respond by pressing the 2 key.    If the prompted perspective sees just one dot, then you would press the 1 key instead.	2	Please press space bar to continue.	0	0	0	0	0	0	0	0	0	0	0	0	0	0	0	0	0	0	0	0
4.0.8.0	092617	16:02:30	999	1	1	3PP3PPTaskInstructions.M	28	instruct2	57	1	349	3	KEYBOARD USE:    If the prompted avatar sees one dot, press the 1 key.  If the prompted avatar sees two dots, press the 2 key.	3	Please press space bar to continue.	0	0	0	0	0	0	0	0	0	0	0	0	0	0	0	0	0	0	0	0
4.0.8.0	092617	16:02:30	999	1	1	3PP3PPTaskInstructions.M	29	instruct2	2	0	2566	4	FINGER PLACEMENT:     Because the 1 and the 2 keys are so close, we ask that you use your right hand only. Please place your right pointer finger over the 1 key and your right middle finger over the 2 key.    You may find it easier to use the 1 and 2 keys on your keyboard's number pad, if available.	4	Please press the 1 key to continue.	0	0	0	0	0	0	0	0	0	0	0	0	0	0	0	0	0	0	0	0
4.0.8.0	092617	16:02:30	999	1	1	3PP3PPTaskInstructions.M	30	instruct2	3	1	747	5	For the following practice trials, we encourage you complete the trials as quickly and accurately as possible.	5	Please press the 2 key when you are ready to begin.	0	0	0	0	0	0	0	0	0	0	0	0	0	0	0	0	0	0	0	0
4.0.8.0	092617	16:02:30	999	1	2	3PP3PPTaskPractice.M	1	CLS1.M	2	1	554	1	blank	1	James	1	James	1	+   +	1	+   +	1	+ +	1	+ +	1	+	2	3578.jpg	2	rflgreen-m.png	2	lfrblue-m.png	1	blank
4.0.8.0	092617	16:02:30	999	1	2	3PP3PPTaskPractice.M	2	CHS1.M	2	1	541	1	blank	2	Eric	2	Eric	1	+   +	1	+   +	1	+ +	1	+ +	1	+	2	3578.jpg	2	rflgreen-m.png	2	lfrblue-m.png	1	blank
4.0.8.0	092617	16:02:30	999	1	2	3PP3PPTaskPractice.M	3	IHS2.parallel.leftin.M	2	0	472	1	blank	2	Eric	2	Eric	1	+   +	1	+   +	1	+ +	1	+ +	1	+	2	2457.jpg	2	rflgreen-m.png	2	rfrblue-m.png	1	blank
4.0.8.0	092617	16:02:30	999	1	2	3PP3PPTaskPractice.M	4	ILS2.parallel.leftout.M	3	1	567	1	blank	1	James	1	James	1	+   +	1	+   +	1	+ +	1	+ +	1	+	2	3457.jpg	2	lflgreen-m.png	2	lfrblue-m.png	1	blank
4.0.8.0	092617	16:02:30	999	1	2	3PP3PPTaskPractice.M	5	CLS2.M	3	1	528	1	blank	1	James	1	James	1	+   +	1	+   +	1	+ +	1	+ +	1	+	2	3457.jpg	2	rflgreen-m.png	2	lfrblue-m.png	1	blank
4.0.8.0	092617	16:02:30	999	1	2	3PP3PPTaskPractice.M	6	ILS2.outward.M	3	1	627	1	blank	1	James	1	James	1	+   +	1	+   +	1	+ +	1	+ +	1	+	4	3579.jpg	4	lflgreen-m.png	4	rfrblue-m.png	1	blank
4.0.8.0	092617	16:02:30	999	1	2	3PP3PPTaskPractice.M	7	ILS2.outward.M	3	1	613	1	blank	1	James	1	James	1	+   +	1	+   +	1	+ +	1	+ +	1	+	1	2357.jpg	1	lflblue-m.png	1	rfrgreen-m.png	1	blank
4.0.8.0	092617	16:02:30	999	1	2	3PP3PPTaskPractice.M	8	CLS1.M	3	0	424	1	blank	1	James	1	James	1	+   +	1	+   +	1	+ +	1	+ +	1	+	6	3579.jpg	6	rflgreen-m.png	6	lfrblue-m.png	1	blank
4.0.8.0	092617	16:02:30	999	1	2	3PP3PPTaskPractice.M	9	ILS1.parallel.leftin.M	3	0	470	1	blank	1	James	1	James	1	+   +	1	+   +	1	+ +	1	+ +	1	+	1	3578.jpg	1	rflblue-m.png	1	rfrgreen-m.png	1	blank
4.0.8.0	092617	16:02:30	999	1	2	3PP3PPTaskPractice.M	10	CLS2.M	3	1	565	1	blank	1	James	1	James	1	+   +	1	+   +	1	+ +	1	+ +	1	+	6	3567.jpg	6	rflgreen-m.png	6	lfrblue-m.png	1	blank
4.0.8.0	092617	16:02:30	999	1	2	3PP3PPTaskPractice.M	11	IHS2.outward.M	2	0	474	1	blank	2	Eric	2	Eric	1	+   +	1	+   +	1	+ +	1	+ +	1	+	1	3589.jpg	1	lflblue-m.png	1	rfrgreen-m.png	1	blank
4.0.8.0	092617	16:02:30	999	1	2	3PP3PPTaskPractice.M	12	IHS1.outward.M	3	0	306	1	blank	2	Eric	2	Eric	1	+   +	1	+   +	1	+ +	1	+ +	1	+	3	3589.jpg	3	lflgreen-m.png	3	rfrblue-m.png	1	blank
4.0.8.0	092617	16:02:30	999	1	2	3PP3PPTaskPractice.M	13	pracblockfb.M	57	0	1729	1	You got 7 out of 13 trials correct.   Please press space bar to continue.	0	0	0	0	0	0	0	0	0	0	0	0	0	0	0	0	0	0	0	0	0	0
4.0.8.0	092617	16:02:30	999	1	2	3PP3PPTaskPractice.M	14	pracblockfail	57	0	1501	1	Let's try again.  This time, try to get at least 10 trials correct.   To restart the practice, please press space bar.	0	0	0	0	0	0	0	0	0	0	0	0	0	0	0	0	0	0	0	0	0	0
4.0.8.0	092617	16:02:30	999	1	3	3PP3PPTaskPractice.M	1	ILS1.outward.M	0	0	1102	1	blank	1	James	1	James	1	+   +	1	+   +	1	+ +	1	+ +	1	+	1	3589.jpg	1	lflblue-m.png	1	rfrgreen-m.png	1	blank
4.0.8.0	092617	16:02:30	999	1	3	3PP3PPTaskPractice.M	2	ILS2.outward.M	2	0	452	1	blank	1	James	1	James	1	+   +	1	+   +	1	+ +	1	+ +	1	+	1	2357.jpg	1	lflblue-m.png	1	rfrgreen-m.png	1	blank
4.0.8.0	092617	16:02:30	999	1	3	3PP3PPTaskPractice.M	3	CLS2.M	3	1	527	1	blank	1	James	1	James	1	+   +	1	+   +	1	+ +	1	+ +	1	+	2	3457.jpg	2	rflgreen-m.png	2	lfrblue-m.png	1	blank
4.0.8.0	092617	16:02:30	999	1	3	3PP3PPTaskPractice.M	4	ILS2.parallel.leftout.M	3	1	541	1	blank	1	James	1	James	1	+   +	1	+   +	1	+ +	1	+ +	1	+	1	2358.jpg	1	lflblue-m.png	1	lfrgreen-m.png	1	blank
4.0.8.0	092617	16:02:30	999	1	3	3PP3PPTaskPractice.M	5	ILS1.parallel.leftin.M	2	1	656	1	blank	1	James	1	James	1	+   +	1	+   +	1	+ +	1	+ +	1	+	2	2457.jpg	2	rflgreen-m.png	2	rfrblue-m.png	1	blank
4.0.8.0	092617	16:02:30	999	1	3	3PP3PPTaskPractice.M	6	ILS1.outward.M	2	1	707	1	blank	1	James	1	James	1	+   +	1	+   +	1	+ +	1	+ +	1	+	4	1357.jpg	4	lflgreen-m.png	4	rfrblue-m.png	1	blank
4.0.8.0	092617	16:02:30	999	1	3	3PP3PPTaskPractice.M	7	CLS2.M	3	1	458	1	blank	1	James	1	James	1	+   +	1	+   +	1	+ +	1	+ +	1	+	4	3568.jpg	4	rflgreen-m.png	4	lfrblue-m.png	1	blank
4.0.8.0	092617	16:02:30	999	1	3	3PP3PPTaskPractice.M	8	IHS2.parallel.leftout.M	3	1	554	1	blank	2	Eric	2	Eric	1	+   +	1	+   +	1	+ +	1	+ +	1	+	1	3567.jpg	1	lflblue-m.png	1	lfrgreen-m.png	1	blank
4.0.8.0	092617	16:02:30	999	1	3	3PP3PPTaskPractice.M	9	CHS2.M	3	1	441	1	blank	2	Eric	2	Eric	1	+   +	1	+   +	1	+ +	1	+ +	1	+	1	3457.jpg	1	rflblue-m.png	1	lfrgreen-m.png	1	blank
4.0.8.0	092617	16:02:30	999	1	3	3PP3PPTaskPractice.M	10	ILS1.parallel.leftout.M	2	1	584	1	blank	1	James	1	James	1	+   +	1	+   +	1	+ +	1	+ +	1	+	1	3567.jpg	1	lflblue-m.png	1	lfrgreen-m.png	1	blank
4.0.8.0	092617	16:02:30	999	1	3	3PP3PPTaskPractice.M	11	IHS1.parallel.leftin.M	3	0	978	1	blank	2	Eric	2	Eric	1	+   +	1	+   +	1	+ +	1	+ +	1	+	2	3578.jpg	2	rflgreen-m.png	2	rfrblue-m.png	1	blank
4.0.8.0	092617	16:02:30	999	1	3	3PP3PPTaskPractice.M	12	CHS2.M	3	1	432	1	blank	2	Eric	2	Eric	1	+   +	1	+   +	1	+ +	1	+ +	1	+	4	3568.jpg	4	rflgreen-m.png	4	lfrblue-m.png	1	blank
4.0.8.0	092617	16:02:30	999	1	3	3PP3PPTaskPractice.M	13	pracblockfb.M	57	0	1382	1	You got 9 out of 13 trials correct.   Please press space bar to continue.	0	0	0	0	0	0	0	0	0	0	0	0	0	0	0	0	0	0	0	0	0	0
4.0.8.0	092617	16:02:30	999	1	3	3PP3PPTaskPractice.M	14	pracblockfail	57	0	333	1	Let's try again.  This time, try to get at least 10 trials correct.   To restart the practice, please press space bar.	0	0	0	0	0	0	0	0	0	0	0	0	0	0	0	0	0	0	0	0	0	0
4.0.8.0	092617	16:02:30	999	1	4	3PP3PPTaskPractice.M	1	IHS1.outward.M	3	0	614	1	blank	2	Eric	2	Eric	1	+   +	1	+   +	1	+ +	1	+ +	1	+	2	1357.jpg	2	lflblue-m.png	2	rfrgreen-m.png	1	blank
4.0.8.0	092617	16:02:30	999	1	4	3PP3PPTaskPractice.M	2	CHS2.M	3	1	501	1	blank	2	Eric	2	Eric	1	+   +	1	+   +	1	+ +	1	+ +	1	+	5	3567.jpg	5	rflblue-m.png	5	lfrgreen-m.png	1	blank
4.0.8.0	092617	16:02:30	999	1	4	3PP3PPTaskPractice.M	3	CLS1.M	3	0	509	1	blank	1	James	1	James	1	+   +	1	+   +	1	+ +	1	+ +	1	+	8	2357.jpg	8	rflgreen-m.png	8	lfrblue-m.png	1	blank
4.0.8.0	092617	16:02:30	999	1	4	3PP3PPTaskPractice.M	4	CLS1.M	2	1	485	1	blank	1	James	1	James	1	+   +	1	+   +	1	+ +	1	+ +	1	+	3	1357.jpg	3	rflblue-m.png	3	lfrgreen-m.png	1	blank
4.0.8.0	092617	16:02:30	999	1	4	3PP3PPTaskPractice.M	5	ILS2.outward.M	3	1	529	1	blank	1	James	1	James	1	+   +	1	+   +	1	+ +	1	+ +	1	+	3	3589.jpg	3	lflgreen-m.png	3	rfrblue-m.png	1	blank
4.0.8.0	092617	16:02:30	999	1	4	3PP3PPTaskPractice.M	6	IHS1.parallel.leftin.M	3	0	495	1	blank	2	Eric	2	Eric	1	+   +	1	+   +	1	+ +	1	+ +	1	+	1	2457.jpg	1	rflblue-m.png	1	rfrgreen-m.png	1	blank
4.0.8.0	092617	16:02:30	999	1	4	3PP3PPTaskPractice.M	7	CHS1.M	2	1	473	1	blank	2	Eric	2	Eric	1	+   +	1	+   +	1	+ +	1	+ +	1	+	6	3579.jpg	6	rflgreen-m.png	6	lfrblue-m.png	1	blank
4.0.8.0	092617	16:02:30	999	1	4	3PP3PPTaskPractice.M	8	ILS1.parallel.leftin.M	3	0	609	1	blank	1	James	1	James	1	+   +	1	+   +	1	+ +	1	+ +	1	+	2	2457.jpg	2	rflgreen-m.png	2	rfrblue-m.png	1	blank
4.0.8.0	092617	16:02:30	999	1	4	3PP3PPTaskPractice.M	9	ILS1.outward.M	2	1	618	1	blank	1	James	1	James	1	+   +	1	+   +	1	+ +	1	+ +	1	+	2	3579.jpg	2	lflblue-m.png	2	rfrgreen-m.png	1	blank
4.0.8.0	092617	16:02:30	999	1	4	3PP3PPTaskPractice.M	10	IHS2.outward.M	3	1	651	1	blank	2	Eric	2	Eric	1	+   +	1	+   +	1	+ +	1	+ +	1	+	3	2357.jpg	3	lflgreen-m.png	3	rfrblue-m.png	1	blank
4.0.8.0	092617	16:02:30	999	1	4	3PP3PPTaskPractice.M	11	IHS2.parallel.leftout.M	3	1	462	1	blank	2	Eric	2	Eric	1	+   +	1	+   +	1	+ +	1	+ +	1	+	2	2358.jpg	2	lflgreen-m.png	2	lfrblue-m.png	1	blank
4.0.8.0	092617	16:02:30	999	1	4	3PP3PPTaskPractice.M	12	IHS1.parallel.leftout.M	2	1	705	1	blank	2	Eric	2	Eric	1	+   +	1	+   +	1	+ +	1	+ +	1	+	1	2358.jpg	1	lflblue-m.png	1	lfrgreen-m.png	1	blank
4.0.8.0	092617	16:02:30	999	1	4	3PP3PPTaskPractice.M	13	pracblockfb.M	57	0	889	1	You got 8 out of 13 trials correct.   Please press space bar to continue.	0	0	0	0	0	0	0	0	0	0	0	0	0	0	0	0	0	0	0	0	0	0
4.0.8.0	092617	16:02:30	999	1	4	3PP3PPTaskPractice.M	14	pracblockfail	57	0	298	1	Let's try again.  This time, try to get at least 10 trials correct.   To restart the practice, please press space bar.	0	0	0	0	0	0	0	0	0	0	0	0	0	0	0	0	0	0	0	0	0	0
4.0.8.0	092617	16:02:30	999	1	5	3PP3PPTaskPractice.M	1	IHS2.parallel.leftout.M	3	1	539	1	blank	2	Eric	2	Eric	1	+   +	1	+   +	1	+ +	1	+ +	1	+	2	2358.jpg	2	lflgreen-m.png	2	lfrblue-m.png	1	blank
4.0.8.0	092617	16:02:30	999	1	5	3PP3PPTaskPractice.M	2	ILS1.parallel.leftout.M	2	1	967	1	blank	1	James	1	James	1	+   +	1	+   +	1	+ +	1	+ +	1	+	1	3567.jpg	1	lflblue-m.png	1	lfrgreen-m.png	1	blank
4.0.8.0	092617	16:02:30	999	1	5	3PP3PPTaskPractice.M	3	IHS1.parallel.leftin.M	0	0	1102	1	blank	2	Eric	2	Eric	1	+   +	1	+   +	1	+ +	1	+ +	1	+	1	2457.jpg	1	rflblue-m.png	1	rfrgreen-m.png	1	blank
4.0.8.0	092617	16:02:30	999	1	5	3PP3PPTaskPractice.M	4	ILS1.parallel.leftin.M	2	1	697	1	blank	1	James	1	James	1	+   +	1	+   +	1	+ +	1	+ +	1	+	2	2457.jpg	2	rflgreen-m.png	2	rfrblue-m.png	1	blank
4.0.8.0	092617	16:02:30	999	1	5	3PP3PPTaskPractice.M	5	IHS2.outward.M	3	1	694	1	blank	2	Eric	2	Eric	1	+   +	1	+   +	1	+ +	1	+ +	1	+	2	3579.jpg	2	lflblue-m.png	2	rfrgreen-m.png	1	blank
4.0.8.0	092617	16:02:30	999	1	5	3PP3PPTaskPractice.M	6	CLS1.M	2	1	559	1	blank	1	James	1	James	1	+   +	1	+   +	1	+ +	1	+ +	1	+	7	2357.jpg	7	rflblue-m.png	7	lfrgreen-m.png	1	blank
4.0.8.0	092617	16:02:30	999	1	5	3PP3PPTaskPractice.M	7	IHS1.parallel.leftout.M	3	0	692	1	blank	2	Eric	2	Eric	1	+   +	1	+   +	1	+ +	1	+ +	1	+	2	3567.jpg	2	lflgreen-m.png	2	lfrblue-m.png	1	blank
4.0.8.0	092617	16:02:30	999	1	5	3PP3PPTaskPractice.M	8	CHS1.M	2	1	583	1	blank	2	Eric	2	Eric	1	+   +	1	+   +	1	+ +	1	+ +	1	+	4	1357.jpg	4	rflgreen-m.png	4	lfrblue-m.png	1	blank
4.0.8.0	092617	16:02:30	999	1	5	3PP3PPTaskPractice.M	9	CLS1.M	2	1	557	1	blank	1	James	1	James	1	+   +	1	+   +	1	+ +	1	+ +	1	+	3	1357.jpg	3	rflblue-m.png	3	lfrgreen-m.png	1	blank
4.0.8.0	092617	16:02:30	999	1	5	3PP3PPTaskPractice.M	10	IHS2.outward.M	0	0	1102	1	blank	2	Eric	2	Eric	1	+   +	1	+   +	1	+ +	1	+ +	1	+	1	3589.jpg	1	lflblue-m.png	1	rfrgreen-m.png	1	blank
4.0.8.0	092617	16:02:30	999	1	5	3PP3PPTaskPractice.M	11	ILS2.parallel.leftout.M	3	1	664	1	blank	1	James	1	James	1	+   +	1	+   +	1	+ +	1	+ +	1	+	2	3457.jpg	2	lflgreen-m.png	2	lfrblue-m.png	1	blank
4.0.8.0	092617	16:02:30	999	1	5	3PP3PPTaskPractice.M	12	ILS1.outward.M	2	1	695	1	blank	1	James	1	James	1	+   +	1	+   +	1	+ +	1	+ +	1	+	2	3579.jpg	2	lflblue-m.png	2	rfrgreen-m.png	1	blank
4.0.8.0	092617	16:02:30	999	1	5	3PP3PPTaskPractice.M	13	pracblockfb.M	57	0	1197	1	You got 9 out of 13 trials correct.   Please press space bar to continue.	0	0	0	0	0	0	0	0	0	0	0	0	0	0	0	0	0	0	0	0	0	0
4.0.8.0	092617	16:02:30	999	1	5	3PP3PPTaskPractice.M	14	pracblockfail	57	0	570	1	Let's try again.  This time, try to get at least 10 trials correct.   To restart the practice, please press space bar.	0	0	0	0	0	0	0	0	0	0	0	0	0	0	0	0	0	0	0	0	0	0
4.0.8.0	092617	16:02:30	999	1	6	3PP3PPTaskPractice.M	1	IHS2.outward.M	3	1	655	1	blank	2	Eric	2	Eric	1	+   +	1	+   +	1	+ +	1	+ +	1	+	4	1357.jpg	4	lflgreen-m.png	4	rfrblue-m.png	1	blank
4.0.8.0	092617	16:02:30	999	1	6	3PP3PPTaskPractice.M	2	ILS1.outward.M	2	1	603	1	blank	1	James	1	James	1	+   +	1	+   +	1	+ +	1	+ +	1	+	3	2357.jpg	3	lflgreen-m.png	3	rfrblue-m.png	1	blank
4.0.8.0	092617	16:02:30	999	1	6	3PP3PPTaskPractice.M	3	ILS2.parallel.leftout.M	3	1	532	1	blank	1	James	1	James	1	+   +	1	+   +	1	+ +	1	+ +	1	+	1	2358.jpg	1	lflblue-m.png	1	lfrgreen-m.png	1	blank
4.0.8.0	092617	16:02:30	999	1	6	3PP3PPTaskPractice.M	4	CHS1.M	2	1	590	1	blank	2	Eric	2	Eric	1	+   +	1	+   +	1	+ +	1	+ +	1	+	3	1357.jpg	3	rflblue-m.png	3	lfrgreen-m.png	1	blank
4.0.8.0	092617	16:02:30	999	1	6	3PP3PPTaskPractice.M	5	CLS1.M	2	1	575	1	blank	1	James	1	James	1	+   +	1	+   +	1	+ +	1	+ +	1	+	1	3578.jpg	1	rflblue-m.png	1	lfrgreen-m.png	1	blank
4.0.8.0	092617	16:02:30	999	1	6	3PP3PPTaskPractice.M	6	CLS1.M	2	1	537	1	blank	1	James	1	James	1	+   +	1	+   +	1	+ +	1	+ +	1	+	7	2357.jpg	7	rflblue-m.png	7	lfrgreen-m.png	1	blank
4.0.8.0	092617	16:02:30	999	1	6	3PP3PPTaskPractice.M	7	CLS2.M	3	1	515	1	blank	1	James	1	James	1	+   +	1	+   +	1	+ +	1	+ +	1	+	7	2457.jpg	7	rflblue-m.png	7	lfrgreen-m.png	1	blank
4.0.8.0	092617	16:02:30	999	1	6	3PP3PPTaskPractice.M	8	CLS1.M	2	1	512	1	blank	1	James	1	James	1	+   +	1	+   +	1	+ +	1	+ +	1	+	2	3578.jpg	2	rflgreen-m.png	2	lfrblue-m.png	1	blank
4.0.8.0	092617	16:02:30	999	1	6	3PP3PPTaskPractice.M	9	CLS2.M	3	1	557	1	blank	1	James	1	James	1	+   +	1	+   +	1	+ +	1	+ +	1	+	6	3567.jpg	6	rflgreen-m.png	6	lfrblue-m.png	1	blank
4.0.8.0	092617	16:02:30	999	1	6	3PP3PPTaskPractice.M	10	CHS1.M	2	1	543	1	blank	2	Eric	2	Eric	1	+   +	1	+   +	1	+ +	1	+ +	1	+	6	3579.jpg	6	rflgreen-m.png	6	lfrblue-m.png	1	blank
4.0.8.0	092617	16:02:30	999	1	6	3PP3PPTaskPractice.M	11	IHS1.parallel.leftin.M	0	0	1102	1	blank	2	Eric	2	Eric	1	+   +	1	+   +	1	+ +	1	+ +	1	+	1	2457.jpg	1	rflblue-m.png	1	rfrgreen-m.png	1	blank
4.0.8.0	092617	16:02:30	999	1	6	3PP3PPTaskPractice.M	12	ILS2.parallel.leftin.M	3	1	649	1	blank	1	James	1	James	1	+   +	1	+   +	1	+ +	1	+ +	1	+	2	3578.jpg	2	rflgreen-m.png	2	rfrblue-m.png	1	blank
4.0.8.0	092617	16:02:30	999	1	6	3PP3PPTaskPractice.M	13	pracblockfb.M	57	0	1240	1	You got 11 out of 13 trials correct.   Please press space bar to continue.	0	0	0	0	0	0	0	0	0	0	0	0	0	0	0	0	0	0	0	0	0	0
4.0.8.0	092617	16:02:30	999	1	6	3PP3PPTaskPractice.M	14	pracblockpass	57	0	1056	1	Well done.  You're now ready to start the experimental block.   Please press space bar to continue.	0	0	0	0	0	0	0	0	0	0	0	0	0	0	0	0	0	0	0	0	0	0
4.0.8.0	092617	16:02:30	999	1	7	3PP3PPTask.M	1	instruct3	57	1	4543	1	REMINDER:    James (Auto Mechanic) is represented by blue.    Eric (Auto Dealership Director) is represented by green.	1	Please press space bar to continue.	0	0	0	0	0	0	0	0	0	0	0	0	0	0	0	0	0	0	0	0
4.0.8.0	092617	16:02:30	999	1	7	3PP3PPTask.M	2	instruct3	57	1	1540	2	REMINDER:    The 1 key means that the target avatar sees one (1) dot.    The 2 key means that the target avatar sees two (2) dots.	2	Please press space bar to continue.	0	0	0	0	0	0	0	0	0	0	0	0	0	0	0	0	0	0	0	0
4.0.8.0	092617	16:02:30	999	1	7	3PP3PPTask.M	3	instruct3	3	0	4219	3	Time to get ready:    Please ensure your fingers are in the correct positions over the 1 and 2 keys on your keyboard.    The first experimental block begins after this screen.  Please remember to respond as QUICKLY and ACCURATELY as possible on all trials.	3	Please press the 2 key when you are ready to begin.	0	0	0	0	0	0	0	0	0	0	0	0	0	0	0	0	0	0	0	0
4.0.8.0	092617	16:02:30	999	1	7	3PP3PPTask.M	4	ILS1.parallel.leftin.M	3	0	552	1	blank	1	James	1	James	1	+   +	1	+   +	1	+ +	1	+ +	1	+	2	2457.jpg	2	rflgreen-m.png	2	rfrblue-m.png	1	blank
4.0.8.0	092617	16:02:30	999	1	7	3PP3PPTask.M	5	ILS2.outward.M	3	1	459	1	blank	1	James	1	James	1	+   +	1	+   +	1	+ +	1	+ +	1	+	4	3579.jpg	4	lflgreen-m.png	4	rfrblue-m.png	1	blank
4.0.8.0	092617	16:02:30	999	1	7	3PP3PPTask.M	6	ILS1.outward.M	2	1	539	1	blank	1	James	1	James	1	+   +	1	+   +	1	+ +	1	+ +	1	+	3	2357.jpg	3	lflgreen-m.png	3	rfrblue-m.png	1	blank
4.0.8.0	092617	16:02:30	999	1	7	3PP3PPTask.M	7	ILS1.outward.M	0	0	1102	1	blank	1	James	1	James	1	+   +	1	+   +	1	+ +	1	+ +	1	+	2	3579.jpg	2	lflblue-m.png	2	rfrgreen-m.png	1	blank
4.0.8.0	092617	16:02:30	999	1	7	3PP3PPTask.M	8	IHS1.parallel.leftout.M	2	1	870	1	blank	2	Eric	2	Eric	1	+   +	1	+   +	1	+ +	1	+ +	1	+	2	3567.jpg	2	lflgreen-m.png	2	lfrblue-m.png	1	blank
4.0.8.0	092617	16:02:30	999	1	7	3PP3PPTask.M	9	ILS1.parallel.leftin.M	3	0	818	1	blank	1	James	1	James	1	+   +	1	+   +	1	+ +	1	+ +	1	+	1	3578.jpg	1	rflblue-m.png	1	rfrgreen-m.png	1	blank
4.0.8.0	092617	16:02:30	999	1	7	3PP3PPTask.M	10	CHS2.M	3	1	486	1	blank	2	Eric	2	Eric	1	+   +	1	+   +	1	+ +	1	+ +	1	+	3	3568.jpg	3	rflblue-m.png	3	lfrgreen-m.png	1	blank
4.0.8.0	092617	16:02:30	999	1	7	3PP3PPTask.M	11	ILS2.outward.M	2	0	629	1	blank	1	James	1	James	1	+   +	1	+   +	1	+ +	1	+ +	1	+	3	3589.jpg	3	lflgreen-m.png	3	rfrblue-m.png	1	blank
4.0.8.0	092617	16:02:30	999	1	7	3PP3PPTask.M	12	IHS2.parallel.leftin.M	3	1	1016	1	blank	2	Eric	2	Eric	1	+   +	1	+   +	1	+ +	1	+ +	1	+	1	3578.jpg	1	rflblue-m.png	1	rfrgreen-m.png	1	blank
4.0.8.0	092617	16:02:30	999	1	7	3PP3PPTask.M	13	CHS1.M	2	1	564	1	blank	2	Eric	2	Eric	1	+   +	1	+   +	1	+ +	1	+ +	1	+	4	1357.jpg	4	rflgreen-m.png	4	lfrblue-m.png	1	blank
4.0.8.0	092617	16:02:30	999	1	7	3PP3PPTask.M	14	IHS2.parallel.leftout.M	3	1	865	1	blank	2	Eric	2	Eric	1	+   +	1	+   +	1	+ +	1	+ +	1	+	1	3567.jpg	1	lflblue-m.png	1	lfrgreen-m.png	1	blank
4.0.8.0	092617	16:02:30	999	1	7	3PP3PPTask.M	15	IHS2.outward.M	0	0	1102	1	blank	2	Eric	2	Eric	1	+   +	1	+   +	1	+ +	1	+ +	1	+	2	3579.jpg	2	lflblue-m.png	2	rfrgreen-m.png	1	blank
4.0.8.0	092617	16:02:30	999	1	7	3PP3PPTask.M	16	ILS2.outward.M	3	1	597	1	blank	1	James	1	James	1	+   +	1	+   +	1	+ +	1	+ +	1	+	2	1357.jpg	2	lflblue-m.png	2	rfrgreen-m.png	1	blank
4.0.8.0	092617	16:02:30	999	1	7	3PP3PPTask.M	17	IHS2.parallel.leftin.M	3	1	635	1	blank	2	Eric	2	Eric	1	+   +	1	+   +	1	+ +	1	+ +	1	+	2	2457.jpg	2	rflgreen-m.png	2	rfrblue-m.png	1	blank
4.0.8.0	092617	16:02:30	999	1	7	3PP3PPTask.M	18	CLS2.M	3	1	545	1	blank	1	James	1	James	1	+   +	1	+   +	1	+ +	1	+ +	1	+	8	2457.jpg	8	rflgreen-m.png	8	lfrblue-m.png	1	blank
4.0.8.0	092617	16:02:30	999	1	7	3PP3PPTask.M	19	CHS2.M	3	1	505	1	blank	2	Eric	2	Eric	1	+   +	1	+   +	1	+ +	1	+ +	1	+	2	3457.jpg	2	rflgreen-m.png	2	lfrblue-m.png	1	blank
4.0.8.0	092617	16:02:30	999	1	7	3PP3PPTask.M	20	CHS2.M	3	1	457	1	blank	2	Eric	2	Eric	1	+   +	1	+   +	1	+ +	1	+ +	1	+	8	2457.jpg	8	rflgreen-m.png	8	lfrblue-m.png	1	blank
4.0.8.0	092617	16:02:30	999	1	7	3PP3PPTask.M	21	IHS1.outward.M	0	0	1102	1	blank	2	Eric	2	Eric	1	+   +	1	+   +	1	+ +	1	+ +	1	+	4	3579.jpg	4	lflgreen-m.png	4	rfrblue-m.png	1	blank
4.0.8.0	092617	16:02:30	999	1	7	3PP3PPTask.M	22	CLS1.M	2	1	672	1	blank	1	James	1	James	1	+   +	1	+   +	1	+ +	1	+ +	1	+	7	2357.jpg	7	rflblue-m.png	7	lfrgreen-m.png	1	blank
4.0.8.0	092617	16:02:30	999	1	7	3PP3PPTask.M	23	IHS1.parallel.leftout.M	3	0	536	1	blank	2	Eric	2	Eric	1	+   +	1	+   +	1	+ +	1	+ +	1	+	1	2358.jpg	1	lflblue-m.png	1	lfrgreen-m.png	1	blank
4.0.8.0	092617	16:02:30	999	1	7	3PP3PPTask.M	24	CHS1.M	2	1	654	1	blank	2	Eric	2	Eric	1	+   +	1	+   +	1	+ +	1	+ +	1	+	3	1357.jpg	3	rflblue-m.png	3	lfrgreen-m.png	1	blank
4.0.8.0	092617	16:02:30	999	1	7	3PP3PPTask.M	25	CHS2.M	3	1	566	1	blank	2	Eric	2	Eric	1	+   +	1	+   +	1	+ +	1	+ +	1	+	7	2457.jpg	7	rflblue-m.png	7	lfrgreen-m.png	1	blank
4.0.8.0	092617	16:02:30	999	1	7	3PP3PPTask.M	26	CLS1.M	2	1	476	1	blank	1	James	1	James	1	+   +	1	+   +	1	+ +	1	+ +	1	+	3	1357.jpg	3	rflblue-m.png	3	lfrgreen-m.png	1	blank
4.0.8.0	092617	16:02:30	999	1	7	3PP3PPTask.M	27	CLS1.M	2	1	515	1	blank	1	James	1	James	1	+   +	1	+   +	1	+ +	1	+ +	1	+	6	3579.jpg	6	rflgreen-m.png	6	lfrblue-m.png	1	blank
4.0.8.0	092617	16:02:30	999	1	7	3PP3PPTask.M	28	IHS2.outward.M	0	0	1102	1	blank	2	Eric	2	Eric	1	+   +	1	+   +	1	+ +	1	+ +	1	+	3	2357.jpg	3	lflgreen-m.png	3	rfrblue-m.png	1	blank
4.0.8.0	092617	16:02:30	999	1	7	3PP3PPTask.M	29	IHS1.parallel.leftin.M	2	1	625	1	blank	2	Eric	2	Eric	1	+   +	1	+   +	1	+ +	1	+ +	1	+	2	3578.jpg	2	rflgreen-m.png	2	rfrblue-m.png	1	blank
4.0.8.0	092617	16:02:30	999	1	7	3PP3PPTask.M	30	CHS2.M	3	1	407	1	blank	2	Eric	2	Eric	1	+   +	1	+   +	1	+ +	1	+ +	1	+	5	3567.jpg	5	rflblue-m.png	5	lfrgreen-m.png	1	blank
4.0.8.0	092617	16:02:30	999	1	7	3PP3PPTask.M	31	IHS2.parallel.leftout.M	0	0	1102	1	blank	2	Eric	2	Eric	1	+   +	1	+   +	1	+ +	1	+ +	1	+	2	2358.jpg	2	lflgreen-m.png	2	lfrblue-m.png	1	blank
4.0.8.0	092617	16:02:30	999	1	7	3PP3PPTask.M	32	CHS1.M	2	1	528	1	blank	2	Eric	2	Eric	1	+   +	1	+   +	1	+ +	1	+ +	1	+	7	2357.jpg	7	rflblue-m.png	7	lfrgreen-m.png	1	blank
4.0.8.0	092617	16:02:30	999	1	7	3PP3PPTask.M	33	CHS1.M	2	1	566	1	blank	2	Eric	2	Eric	1	+   +	1	+   +	1	+ +	1	+ +	1	+	6	3579.jpg	6	rflgreen-m.png	6	lfrblue-m.png	1	blank
4.0.8.0	092617	16:02:30	999	1	7	3PP3PPTask.M	34	ILS2.parallel.leftin.M	0	0	1102	1	blank	1	James	1	James	1	+   +	1	+   +	1	+ +	1	+ +	1	+	1	3568.jpg	1	rflblue-m.png	1	rfrgreen-m.png	1	blank
4.0.8.0	092617	16:02:30	999	1	7	3PP3PPTask.M	35	ILS2.outward.M	0	0	1102	1	blank	1	James	1	James	1	+   +	1	+   +	1	+ +	1	+ +	1	+	1	2357.jpg	1	lflblue-m.png	1	rfrgreen-m.png	1	blank
4.0.8.0	092617	16:02:30	999	1	7	3PP3PPTask.M	36	IHS1.outward.M	2	1	628	1	blank	2	Eric	2	Eric	1	+   +	1	+   +	1	+ +	1	+ +	1	+	2	1357.jpg	2	lflblue-m.png	2	rfrgreen-m.png	1	blank
4.0.8.0	092617	16:02:30	999	1	7	3PP3PPTask.M	37	IHS2.parallel.leftin.M	3	1	527	1	blank	2	Eric	2	Eric	1	+   +	1	+   +	1	+ +	1	+ +	1	+	2	2457.jpg	2	rflgreen-m.png	2	rfrblue-m.png	1	blank
4.0.8.0	092617	16:02:30	999	1	7	3PP3PPTask.M	38	ILS2.outward.M	3	1	956	1	blank	1	James	1	James	1	+   +	1	+   +	1	+ +	1	+ +	1	+	1	2357.jpg	1	lflblue-m.png	1	rfrgreen-m.png	1	blank
4.0.8.0	092617	16:02:30	999	1	7	3PP3PPTask.M	39	ILS1.parallel.leftin.M	2	1	728	1	blank	1	James	1	James	1	+   +	1	+   +	1	+ +	1	+ +	1	+	2	2457.jpg	2	rflgreen-m.png	2	rfrblue-m.png	1	blank
4.0.8.0	092617	16:02:30	999	1	7	3PP3PPTask.M	40	CHS1.M	2	1	672	1	blank	2	Eric	2	Eric	1	+   +	1	+   +	1	+ +	1	+ +	1	+	5	3579.jpg	5	rflblue-m.png	5	lfrgreen-m.png	1	blank
4.0.8.0	092617	16:02:30	999	1	7	3PP3PPTask.M	41	IHS1.outward.M	0	0	1102	1	blank	2	Eric	2	Eric	1	+   +	1	+   +	1	+ +	1	+ +	1	+	3	3589.jpg	3	lflgreen-m.png	3	rfrblue-m.png	1	blank
4.0.8.0	092617	16:02:30	999	1	7	3PP3PPTask.M	42	CLS1.M	2	1	846	1	blank	1	James	1	James	1	+   +	1	+   +	1	+ +	1	+ +	1	+	8	2357.jpg	8	rflgreen-m.png	8	lfrblue-m.png	1	blank
4.0.8.0	092617	16:02:30	999	1	7	3PP3PPTask.M	43	IHS1.parallel.leftin.M	0	0	1102	1	blank	2	Eric	2	Eric	1	+   +	1	+   +	1	+ +	1	+ +	1	+	1	2457.jpg	1	rflblue-m.png	1	rfrgreen-m.png	1	blank
4.0.8.0	092617	16:02:30	999	1	7	3PP3PPTask.M	44	CHS2.M	3	1	586	1	blank	2	Eric	2	Eric	1	+   +	1	+   +	1	+ +	1	+ +	1	+	4	3568.jpg	4	rflgreen-m.png	4	lfrblue-m.png	1	blank
4.0.8.0	092617	16:02:30	999	1	7	3PP3PPTask.M	45	CLS2.M	3	1	569	1	blank	1	James	1	James	1	+   +	1	+   +	1	+ +	1	+ +	1	+	6	3567.jpg	6	rflgreen-m.png	6	lfrblue-m.png	1	blank
4.0.8.0	092617	16:02:30	999	1	7	3PP3PPTask.M	46	CHS1.M	2	1	606	1	blank	2	Eric	2	Eric	1	+   +	1	+   +	1	+ +	1	+ +	1	+	2	3578.jpg	2	rflgreen-m.png	2	lfrblue-m.png	1	blank
4.0.8.0	092617	16:02:30	999	1	7	3PP3PPTask.M	47	CLS2.M	3	1	472	1	blank	1	James	1	James	1	+   +	1	+   +	1	+ +	1	+ +	1	+	4	3568.jpg	4	rflgreen-m.png	4	lfrblue-m.png	1	blank
4.0.8.0	092617	16:02:30	999	1	7	3PP3PPTask.M	48	ILS2.outward.M	2	0	460	1	blank	1	James	1	James	1	+   +	1	+   +	1	+ +	1	+ +	1	+	2	1357.jpg	2	lflblue-m.png	2	rfrgreen-m.png	1	blank
4.0.8.0	092617	16:02:30	999	1	7	3PP3PPTask.M	49	CLS2.M	3	1	504	1	blank	1	James	1	James	1	+   +	1	+   +	1	+ +	1	+ +	1	+	2	3457.jpg	2	rflgreen-m.png	2	lfrblue-m.png	1	blank
4.0.8.0	092617	16:02:30	999	1	7	3PP3PPTask.M	50	CHS2.M	3	1	518	1	blank	2	Eric	2	Eric	1	+   +	1	+   +	1	+ +	1	+ +	1	+	6	3567.jpg	6	rflgreen-m.png	6	lfrblue-m.png	1	blank
4.0.8.0	092617	16:02:30	999	1	7	3PP3PPTask.M	51	IHS1.outward.M	0	0	1102	1	blank	2	Eric	2	Eric	1	+   +	1	+   +	1	+ +	1	+ +	1	+	1	2357.jpg	1	lflblue-m.png	1	rfrgreen-m.png	1	blank
4.0.8.0	092617	16:02:30	999	1	7	3PP3PPTask.M	52	CLS1.M	2	1	568	1	blank	1	James	1	James	1	+   +	1	+   +	1	+ +	1	+ +	1	+	5	3579.jpg	5	rflblue-m.png	5	lfrgreen-m.png	1	blank
4.0.8.0	092617	16:02:30	999	1	7	3PP3PPTask.M	53	CHS2.M	3	1	493	1	blank	2	Eric	2	Eric	1	+   +	1	+   +	1	+ +	1	+ +	1	+	1	3457.jpg	1	rflblue-m.png	1	lfrgreen-m.png	1	blank
4.0.8.0	092617	16:02:30	999	1	7	3PP3PPTask.M	54	CLS1.M	2	1	752	1	blank	1	James	1	James	1	+   +	1	+   +	1	+ +	1	+ +	1	+	4	1357.jpg	4	rflgreen-m.png	4	lfrblue-m.png	1	blank
4.0.8.0	092617	16:02:30	999	1	7	3PP3PPTask.M	55	ILS2.parallel.leftout.M	0	0	1102	1	blank	1	James	1	James	1	+   +	1	+   +	1	+ +	1	+ +	1	+	2	3457.jpg	2	lflgreen-m.png	2	lfrblue-m.png	1	blank
4.0.8.0	092617	16:02:30	999	1	7	3PP3PPTask.M	56	IHS1.parallel.leftin.M	2	1	1023	1	blank	2	Eric	2	Eric	1	+   +	1	+   +	1	+ +	1	+ +	1	+	1	2457.jpg	1	rflblue-m.png	1	rfrgreen-m.png	1	blank
4.0.8.0	092617	16:02:30	999	1	7	3PP3PPTask.M	57	IHS2.outward.M	3	1	602	1	blank	2	Eric	2	Eric	1	+   +	1	+   +	1	+ +	1	+ +	1	+	1	3589.jpg	1	lflblue-m.png	1	rfrgreen-m.png	1	blank
4.0.8.0	092617	16:02:30	999	1	7	3PP3PPTask.M	58	IHS2.parallel.leftin.M	3	1	637	1	blank	2	Eric	2	Eric	1	+   +	1	+   +	1	+ +	1	+ +	1	+	1	3578.jpg	1	rflblue-m.png	1	rfrgreen-m.png	1	blank
4.0.8.0	092617	16:02:30	999	1	7	3PP3PPTask.M	59	CLS2.M	3	1	518	1	blank	1	James	1	James	1	+   +	1	+   +	1	+ +	1	+ +	1	+	3	3568.jpg	3	rflblue-m.png	3	lfrgreen-m.png	1	blank
4.0.8.0	092617	16:02:30	999	1	7	3PP3PPTask.M	60	IHS1.outward.M	0	0	1102	1	blank	2	Eric	2	Eric	1	+   +	1	+   +	1	+ +	1	+ +	1	+	2	1357.jpg	2	lflblue-m.png	2	rfrgreen-m.png	1	blank
4.0.8.0	092617	16:02:30	999	1	7	3PP3PPTask.M	61	ILS1.parallel.leftout.M	0	0	1102	1	blank	1	James	1	James	1	+   +	1	+   +	1	+ +	1	+ +	1	+	2	2358.jpg	2	lflgreen-m.png	2	lfrblue-m.png	1	blank
4.0.8.0	092617	16:02:30	999	1	7	3PP3PPTask.M	62	ILS1.outward.M	2	1	498	1	blank	1	James	1	James	1	+   +	1	+   +	1	+ +	1	+ +	1	+	4	1357.jpg	4	lflgreen-m.png	4	rfrblue-m.png	1	blank
4.0.8.0	092617	16:02:30	999	1	7	3PP3PPTask.M	63	ILS1.outward.M	2	1	454	1	blank	1	James	1	James	1	+   +	1	+   +	1	+ +	1	+ +	1	+	1	3589.jpg	1	lflblue-m.png	1	rfrgreen-m.png	1	blank
4.0.8.0	092617	16:02:30	999	1	7	3PP3PPTask.M	64	CLS1.M	3	0	456	1	blank	1	James	1	James	1	+   +	1	+   +	1	+ +	1	+ +	1	+	2	3578.jpg	2	rflgreen-m.png	2	lfrblue-m.png	1	blank
4.0.8.0	092617	16:02:30	999	1	7	3PP3PPTask.M	65	CHS2.M	3	1	535	1	blank	2	Eric	2	Eric	1	+   +	1	+   +	1	+ +	1	+ +	1	+	2	3457.jpg	2	rflgreen-m.png	2	lfrblue-m.png	1	blank
4.0.8.0	092617	16:02:30	999	1	7	3PP3PPTask.M	66	CHS1.M	2	1	722	1	blank	2	Eric	2	Eric	1	+   +	1	+   +	1	+ +	1	+ +	1	+	1	3578.jpg	1	rflblue-m.png	1	lfrgreen-m.png	1	blank
4.0.8.0	092617	16:02:30	999	1	7	3PP3PPTask.M	67	IHS2.outward.M	3	1	663	1	blank	2	Eric	2	Eric	1	+   +	1	+   +	1	+ +	1	+ +	1	+	4	1357.jpg	4	lflgreen-m.png	4	rfrblue-m.png	1	blank
4.0.8.0	092617	16:02:30	999	1	7	3PP3PPTask.M	68	CHS1.M	2	1	507	1	blank	2	Eric	2	Eric	1	+   +	1	+   +	1	+ +	1	+ +	1	+	8	2357.jpg	8	rflgreen-m.png	8	lfrblue-m.png	1	blank
4.0.8.0	092617	16:02:30	999	1	7	3PP3PPTask.M	69	IHS2.outward.M	3	1	587	1	blank	2	Eric	2	Eric	1	+   +	1	+   +	1	+ +	1	+ +	1	+	4	1357.jpg	4	lflgreen-m.png	4	rfrblue-m.png	1	blank
4.0.8.0	092617	16:02:30	999	1	7	3PP3PPTask.M	70	ILS2.parallel.leftin.M	2	0	573	1	blank	1	James	1	James	1	+   +	1	+   +	1	+ +	1	+ +	1	+	2	3578.jpg	2	rflgreen-m.png	2	rfrblue-m.png	1	blank
4.0.8.0	092617	16:02:30	999	1	7	3PP3PPTask.M	71	CLS2.M	3	1	556	1	blank	1	James	1	James	1	+   +	1	+   +	1	+ +	1	+ +	1	+	1	3457.jpg	1	rflblue-m.png	1	lfrgreen-m.png	1	blank
4.0.8.0	092617	16:02:30	999	1	7	3PP3PPTask.M	72	CHS1.M	2	1	497	1	blank	2	Eric	2	Eric	1	+   +	1	+   +	1	+ +	1	+ +	1	+	8	2357.jpg	8	rflgreen-m.png	8	lfrblue-m.png	1	blank
4.0.8.0	092617	16:02:30	999	1	7	3PP3PPTask.M	73	IHS2.parallel.leftout.M	3	1	570	1	blank	2	Eric	2	Eric	1	+   +	1	+   +	1	+ +	1	+ +	1	+	2	2358.jpg	2	lflgreen-m.png	2	lfrblue-m.png	1	blank
4.0.8.0	092617	16:02:30	999	1	7	3PP3PPTask.M	74	CLS1.M	2	1	572	1	blank	1	James	1	James	1	+   +	1	+   +	1	+ +	1	+ +	1	+	1	3578.jpg	1	rflblue-m.png	1	lfrgreen-m.png	1	blank
4.0.8.0	092617	16:02:30	999	1	7	3PP3PPTask.M	75	CLS2.M	3	1	430	1	blank	1	James	1	James	1	+   +	1	+   +	1	+ +	1	+ +	1	+	5	3567.jpg	5	rflblue-m.png	5	lfrgreen-m.png	1	blank
4.0.8.0	092617	16:02:30	999	1	7	3PP3PPTask.M	76	IHS1.outward.M	0	0	1102	1	blank	2	Eric	2	Eric	1	+   +	1	+   +	1	+ +	1	+ +	1	+	1	2357.jpg	1	lflblue-m.png	1	rfrgreen-m.png	1	blank
4.0.8.0	092617	16:02:30	999	1	7	3PP3PPTask.M	77	CHS2.M	3	1	504	1	blank	2	Eric	2	Eric	1	+   +	1	+   +	1	+ +	1	+ +	1	+	1	3457.jpg	1	rflblue-m.png	1	lfrgreen-m.png	1	blank
4.0.8.0	092617	16:02:30	999	1	7	3PP3PPTask.M	78	CHS1.M	2	1	488	1	blank	2	Eric	2	Eric	1	+   +	1	+   +	1	+ +	1	+ +	1	+	6	3579.jpg	6	rflgreen-m.png	6	lfrblue-m.png	1	blank
4.0.8.0	092617	16:02:30	999	1	7	3PP3PPTask.M	79	ILS2.parallel.leftout.M	0	0	1102	1	blank	1	James	1	James	1	+   +	1	+   +	1	+ +	1	+ +	1	+	1	2358.jpg	1	lflblue-m.png	1	lfrgreen-m.png	1	blank
4.0.8.0	092617	16:02:30	999	1	7	3PP3PPTask.M	80	CLS2.M	3	1	447	1	blank	1	James	1	James	1	+   +	1	+   +	1	+ +	1	+ +	1	+	7	2457.jpg	7	rflblue-m.png	7	lfrgreen-m.png	1	blank
4.0.8.0	092617	16:02:30	999	1	7	3PP3PPTask.M	81	CLS2.M	3	1	465	1	blank	1	James	1	James	1	+   +	1	+   +	1	+ +	1	+ +	1	+	1	3457.jpg	1	rflblue-m.png	1	lfrgreen-m.png	1	blank
4.0.8.0	092617	16:02:30	999	1	7	3PP3PPTask.M	82	IHS2.outward.M	0	0	1102	1	blank	2	Eric	2	Eric	1	+   +	1	+   +	1	+ +	1	+ +	1	+	3	2357.jpg	3	lflgreen-m.png	3	rfrblue-m.png	1	blank
4.0.8.0	092617	16:02:30	999	1	7	3PP3PPTask.M	83	CLS1.M	2	1	545	1	blank	1	James	1	James	1	+   +	1	+   +	1	+ +	1	+ +	1	+	2	3578.jpg	2	rflgreen-m.png	2	lfrblue-m.png	1	blank
4.0.8.0	092617	16:02:30	999	1	7	3PP3PPTask.M	84	CLS2.M	3	1	478	1	blank	1	James	1	James	1	+   +	1	+   +	1	+ +	1	+ +	1	+	3	3568.jpg	3	rflblue-m.png	3	lfrgreen-m.png	1	blank
4.0.8.0	092617	16:02:30	999	1	7	3PP3PPTask.M	85	IHS1.outward.M	0	0	1102	1	blank	2	Eric	2	Eric	1	+   +	1	+   +	1	+ +	1	+ +	1	+	4	3579.jpg	4	lflgreen-m.png	4	rfrblue-m.png	1	blank
4.0.8.0	092617	16:02:30	999	1	7	3PP3PPTask.M	86	CHS2.M	3	1	467	1	blank	2	Eric	2	Eric	1	+   +	1	+   +	1	+ +	1	+ +	1	+	3	3568.jpg	3	rflblue-m.png	3	lfrgreen-m.png	1	blank
4.0.8.0	092617	16:02:30	999	1	7	3PP3PPTask.M	87	CHS2.M	3	1	461	1	blank	2	Eric	2	Eric	1	+   +	1	+   +	1	+ +	1	+ +	1	+	7	2457.jpg	7	rflblue-m.png	7	lfrgreen-m.png	1	blank
4.0.8.0	092617	16:02:30	999	1	7	3PP3PPTask.M	88	ILS1.parallel.leftout.M	3	0	1017	1	blank	1	James	1	James	1	+   +	1	+   +	1	+ +	1	+ +	1	+	1	3567.jpg	1	lflblue-m.png	1	lfrgreen-m.png	1	blank
4.0.8.0	092617	16:02:30	999	1	7	3PP3PPTask.M	89	ILS2.parallel.leftin.M	0	0	1102	1	blank	1	James	1	James	1	+   +	1	+   +	1	+ +	1	+ +	1	+	2	3578.jpg	2	rflgreen-m.png	2	rfrblue-m.png	1	blank
4.0.8.0	092617	16:02:30	999	1	7	3PP3PPTask.M	90	ILS1.outward.M	0	0	1102	1	blank	1	James	1	James	1	+   +	1	+   +	1	+ +	1	+ +	1	+	4	1357.jpg	4	lflgreen-m.png	4	rfrblue-m.png	1	blank
4.0.8.0	092617	16:02:30	999	1	7	3PP3PPTask.M	91	CLS2.M	3	1	588	1	blank	1	James	1	James	1	+   +	1	+   +	1	+ +	1	+ +	1	+	8	2457.jpg	8	rflgreen-m.png	8	lfrblue-m.png	1	blank
4.0.8.0	092617	16:02:30	999	1	7	3PP3PPTask.M	92	IHS2.outward.M	0	0	1102	1	blank	2	Eric	2	Eric	1	+   +	1	+   +	1	+ +	1	+ +	1	+	2	3579.jpg	2	lflblue-m.png	2	rfrgreen-m.png	1	blank
4.0.8.0	092617	16:02:30	999	1	7	3PP3PPTask.M	93	ILS2.parallel.leftout.M	3	1	545	1	blank	1	James	1	James	1	+   +	1	+   +	1	+ +	1	+ +	1	+	1	2358.jpg	1	lflblue-m.png	1	lfrgreen-m.png	1	blank
4.0.8.0	092617	16:02:30	999	1	7	3PP3PPTask.M	94	CLS1.M	2	1	532	1	blank	1	James	1	James	1	+   +	1	+   +	1	+ +	1	+ +	1	+	5	3579.jpg	5	rflblue-m.png	5	lfrgreen-m.png	1	blank
4.0.8.0	092617	16:02:30	999	1	7	3PP3PPTask.M	95	CLS1.M	2	1	443	1	blank	1	James	1	James	1	+   +	1	+   +	1	+ +	1	+ +	1	+	3	1357.jpg	3	rflblue-m.png	3	lfrgreen-m.png	1	blank
4.0.8.0	092617	16:02:30	999	1	7	3PP3PPTask.M	96	CLS2.M	3	1	469	1	blank	1	James	1	James	1	+   +	1	+   +	1	+ +	1	+ +	1	+	5	3567.jpg	5	rflblue-m.png	5	lfrgreen-m.png	1	blank
4.0.8.0	092617	16:02:30	999	1	7	3PP3PPTask.M	97	CLS2.M	3	1	431	1	blank	1	James	1	James	1	+   +	1	+   +	1	+ +	1	+ +	1	+	4	3568.jpg	4	rflgreen-m.png	4	lfrblue-m.png	1	blank
4.0.8.0	092617	16:02:30	999	1	7	3PP3PPTask.M	98	IHS2.outward.M	0	0	1102	1	blank	2	Eric	2	Eric	1	+   +	1	+   +	1	+ +	1	+ +	1	+	1	3589.jpg	1	lflblue-m.png	1	rfrgreen-m.png	1	blank
4.0.8.0	092617	16:02:30	999	1	7	3PP3PPTask.M	99	ILS1.outward.M	2	1	582	1	blank	1	James	1	James	1	+   +	1	+   +	1	+ +	1	+ +	1	+	2	3579.jpg	2	lflblue-m.png	2	rfrgreen-m.png	1	blank
4.0.8.0	092617	16:02:30	999	1	7	3PP3PPTask.M	100	CLS2.M	3	1	413	1	blank	1	James	1	James	1	+   +	1	+   +	1	+ +	1	+ +	1	+	7	2457.jpg	7	rflblue-m.png	7	lfrgreen-m.png	1	blank
4.0.8.0	092617	16:02:30	999	1	7	3PP3PPTask.M	101	IHS2.parallel.leftout.M	3	1	546	1	blank	2	Eric	2	Eric	1	+   +	1	+   +	1	+ +	1	+ +	1	+	1	3567.jpg	1	lflblue-m.png	1	lfrgreen-m.png	1	blank
4.0.8.0	092617	16:02:30	999	1	7	3PP3PPTask.M	102	ILS1.parallel.leftout.M	2	1	965	1	blank	1	James	1	James	1	+   +	1	+   +	1	+ +	1	+ +	1	+	1	3567.jpg	1	lflblue-m.png	1	lfrgreen-m.png	1	blank
4.0.8.0	092617	16:02:30	999	1	7	3PP3PPTask.M	103	CHS1.M	2	1	544	1	blank	2	Eric	2	Eric	1	+   +	1	+   +	1	+ +	1	+ +	1	+	5	3579.jpg	5	rflblue-m.png	5	lfrgreen-m.png	1	blank
4.0.8.0	092617	16:02:30	999	1	7	3PP3PPTask.M	104	IHS1.outward.M	0	0	1102	1	blank	2	Eric	2	Eric	1	+   +	1	+   +	1	+ +	1	+ +	1	+	3	3589.jpg	3	lflgreen-m.png	3	rfrblue-m.png	1	blank
4.0.8.0	092617	16:02:30	999	1	7	3PP3PPTask.M	105	CLS1.M	2	1	455	1	blank	1	James	1	James	1	+   +	1	+   +	1	+ +	1	+ +	1	+	6	3579.jpg	6	rflgreen-m.png	6	lfrblue-m.png	1	blank
4.0.8.0	092617	16:02:30	999	1	7	3PP3PPTask.M	106	ILS1.parallel.leftin.M	3	0	599	1	blank	1	James	1	James	1	+   +	1	+   +	1	+ +	1	+ +	1	+	1	3578.jpg	1	rflblue-m.png	1	rfrgreen-m.png	1	blank
4.0.8.0	092617	16:02:30	999	1	7	3PP3PPTask.M	107	CLS1.M	2	1	441	1	blank	1	James	1	James	1	+   +	1	+   +	1	+ +	1	+ +	1	+	7	2357.jpg	7	rflblue-m.png	7	lfrgreen-m.png	1	blank
4.0.8.0	092617	16:02:30	999	1	7	3PP3PPTask.M	108	ILS2.parallel.leftout.M	0	0	1102	1	blank	1	James	1	James	1	+   +	1	+   +	1	+ +	1	+ +	1	+	2	3457.jpg	2	lflgreen-m.png	2	lfrblue-m.png	1	blank
4.0.8.0	092617	16:02:30	999	1	7	3PP3PPTask.M	109	CHS2.M	2	0	536	1	blank	2	Eric	2	Eric	1	+   +	1	+   +	1	+ +	1	+ +	1	+	8	2457.jpg	8	rflgreen-m.png	8	lfrblue-m.png	1	blank
4.0.8.0	092617	16:02:30	999	1	7	3PP3PPTask.M	110	ILS2.parallel.leftin.M	0	0	1102	1	blank	1	James	1	James	1	+   +	1	+   +	1	+ +	1	+ +	1	+	1	3568.jpg	1	rflblue-m.png	1	rfrgreen-m.png	1	blank
4.0.8.0	092617	16:02:30	999	1	7	3PP3PPTask.M	111	CLS1.M	3	0	428	1	blank	1	James	1	James	1	+   +	1	+   +	1	+ +	1	+ +	1	+	8	2357.jpg	8	rflgreen-m.png	8	lfrblue-m.png	1	blank
4.0.8.0	092617	16:02:30	999	1	7	3PP3PPTask.M	112	IHS1.parallel.leftout.M	0	0	1102	1	blank	2	Eric	2	Eric	1	+   +	1	+   +	1	+ +	1	+ +	1	+	1	2358.jpg	1	lflblue-m.png	1	lfrgreen-m.png	1	blank
4.0.8.0	092617	16:02:30	999	1	7	3PP3PPTask.M	113	IHS1.parallel.leftin.M	2	1	442	1	blank	2	Eric	2	Eric	1	+   +	1	+   +	1	+ +	1	+ +	1	+	2	3578.jpg	2	rflgreen-m.png	2	rfrblue-m.png	1	blank
4.0.8.0	092617	16:02:30	999	1	7	3PP3PPTask.M	114	CLS1.M	2	1	521	1	blank	1	James	1	James	1	+   +	1	+   +	1	+ +	1	+ +	1	+	1	3578.jpg	1	rflblue-m.png	1	lfrgreen-m.png	1	blank
4.0.8.0	092617	16:02:30	999	1	7	3PP3PPTask.M	115	ILS1.outward.M	0	0	1102	1	blank	1	James	1	James	1	+   +	1	+   +	1	+ +	1	+ +	1	+	3	2357.jpg	3	lflgreen-m.png	3	rfrblue-m.png	1	blank
4.0.8.0	092617	16:02:30	999	1	7	3PP3PPTask.M	116	IHS1.parallel.leftout.M	2	1	592	1	blank	2	Eric	2	Eric	1	+   +	1	+   +	1	+ +	1	+ +	1	+	2	3567.jpg	2	lflgreen-m.png	2	lfrblue-m.png	1	blank
4.0.8.0	092617	16:02:30	999	1	7	3PP3PPTask.M	117	CHS1.M	2	1	607	1	blank	2	Eric	2	Eric	1	+   +	1	+   +	1	+ +	1	+ +	1	+	4	1357.jpg	4	rflgreen-m.png	4	lfrblue-m.png	1	blank
4.0.8.0	092617	16:02:30	999	1	7	3PP3PPTask.M	118	CHS1.M	2	1	622	1	blank	2	Eric	2	Eric	1	+   +	1	+   +	1	+ +	1	+ +	1	+	3	1357.jpg	3	rflblue-m.png	3	lfrgreen-m.png	1	blank
4.0.8.0	092617	16:02:30	999	1	7	3PP3PPTask.M	119	CLS2.M	3	1	442	1	blank	1	James	1	James	1	+   +	1	+   +	1	+ +	1	+ +	1	+	2	3457.jpg	2	rflgreen-m.png	2	lfrblue-m.png	1	blank
4.0.8.0	092617	16:02:30	999	1	7	3PP3PPTask.M	120	CHS2.M	3	1	458	1	blank	2	Eric	2	Eric	1	+   +	1	+   +	1	+ +	1	+ +	1	+	5	3567.jpg	5	rflblue-m.png	5	lfrgreen-m.png	1	blank
4.0.8.0	092617	16:02:30	999	1	7	3PP3PPTask.M	121	ILS1.outward.M	0	0	1102	1	blank	1	James	1	James	1	+   +	1	+   +	1	+ +	1	+ +	1	+	1	3589.jpg	1	lflblue-m.png	1	rfrgreen-m.png	1	blank
4.0.8.0	092617	16:02:30	999	1	7	3PP3PPTask.M	122	CHS1.M	2	1	410	1	blank	2	Eric	2	Eric	1	+   +	1	+   +	1	+ +	1	+ +	1	+	1	3578.jpg	1	rflblue-m.png	1	lfrgreen-m.png	1	blank
4.0.8.0	092617	16:02:30	999	1	7	3PP3PPTask.M	123	CLS2.M	3	1	407	1	blank	1	James	1	James	1	+   +	1	+   +	1	+ +	1	+ +	1	+	6	3567.jpg	6	rflgreen-m.png	6	lfrblue-m.png	1	blank
4.0.8.0	092617	16:02:30	999	1	7	3PP3PPTask.M	124	ILS1.parallel.leftout.M	0	0	1102	1	blank	1	James	1	James	1	+   +	1	+   +	1	+ +	1	+ +	1	+	2	2358.jpg	2	lflgreen-m.png	2	lfrblue-m.png	1	blank
4.0.8.0	092617	16:02:30	999	1	7	3PP3PPTask.M	125	CLS1.M	2	1	462	1	blank	1	James	1	James	1	+   +	1	+   +	1	+ +	1	+ +	1	+	4	1357.jpg	4	rflgreen-m.png	4	lfrblue-m.png	1	blank
4.0.8.0	092617	16:02:30	999	1	7	3PP3PPTask.M	126	CHS1.M	2	1	484	1	blank	2	Eric	2	Eric	1	+   +	1	+   +	1	+ +	1	+ +	1	+	7	2357.jpg	7	rflblue-m.png	7	lfrgreen-m.png	1	blank
4.0.8.0	092617	16:02:30	999	1	7	3PP3PPTask.M	127	ILS2.outward.M	0	0	1102	1	blank	1	James	1	James	1	+   +	1	+   +	1	+ +	1	+ +	1	+	4	3579.jpg	4	lflgreen-m.png	4	rfrblue-m.png	1	blank
4.0.8.0	092617	16:02:30	999	1	7	3PP3PPTask.M	128	CHS2.M	3	1	583	1	blank	2	Eric	2	Eric	1	+   +	1	+   +	1	+ +	1	+ +	1	+	4	3568.jpg	4	rflgreen-m.png	4	lfrblue-m.png	1	blank
4.0.8.0	092617	16:02:30	999	1	7	3PP3PPTask.M	129	CHS2.M	3	1	439	1	blank	2	Eric	2	Eric	1	+   +	1	+   +	1	+ +	1	+ +	1	+	6	3567.jpg	6	rflgreen-m.png	6	lfrblue-m.png	1	blank
4.0.8.0	092617	16:02:30	999	1	7	3PP3PPTask.M	130	CHS1.M	3	0	532	1	blank	2	Eric	2	Eric	1	+   +	1	+   +	1	+ +	1	+ +	1	+	2	3578.jpg	2	rflgreen-m.png	2	lfrblue-m.png	1	blank
4.0.8.0	092617	16:02:30	999	1	7	3PP3PPTask.M	131	ILS2.outward.M	3	1	730	1	blank	1	James	1	James	1	+   +	1	+   +	1	+ +	1	+ +	1	+	3	3589.jpg	3	lflgreen-m.png	3	rfrblue-m.png	1	blank
4.0.8.0	092617	16:02:30	999	1	8	finish	1	finish	57	0	4800	1	Thank you for completing the perspective-taking task.    Take a moment to rest if you wish.  After this, we will have you complete a short attentional task.      When you are ready to continue, please press space bar.	0	0	0	0	0	0	0	0	0	0	0	0	0	0	0	0	0	0	0	0	0	0
