build	date	time	subject	group	blocknum	blockcode	trialnum	trialcode	response	correct	latency	stimulusnumber1	stimulusitem1	stimulusnumber2	stimulusitem2	stimulusnumber3	stimulusitem3	stimulusnumber4	stimulusitem4	stimulusnumber5	stimulusitem5	stimulusnumber6	stimulusitem6	stimulusnumber7	stimulusitem7	stimulusnumber8	stimulusitem8	stimulusnumber9	stimulusitem9	stimulusnumber10	stimulusitem10	stimulusnumber11	stimulusitem11	stimulusnumber12	stimulusitem12
4.0.8.0	092817	10:33:30	999	1	1	3PP3PPTaskInstructions.M	1	instruct1.M	57	1	1745	1	PERSPECTIVES TASK     Thank you for your participation thusfar.    You will now complete a series of tasks that require you to view a three dimensional (3D) space from different perspectives.	1	Please press space bar to continue.	1	blankav.png	0	0	0	0	0	0	0	0	0	0	0	0	0	0	0	0	0	0
4.0.8.0	092817	10:33:30	999	1	1	3PP3PPTaskInstructions.M	2	instruct1.M	57	1	1353	2	On each trial, you will view a 3D environment with the avatars representing James (Accountant) and Eric (Charity Director).    Opposite the two avatars on the far wall of the 3D space, you will see a total of four dots.  You will also see some visual barriers perpendicular to the back wall.	2	Please press space bar to see an example of this 3D space.	2	blankav.png	0	0	0	0	0	0	0	0	0	0	0	0	0	0	0	0	0	0
4.0.8.0	092817	10:33:30	999	1	1	3PP3PPTaskInstructions.M	3	instruct1.M	3	0	8369	3	3D SPACE EXAMPLE, PART 1:    Note that the avatar on the left can only see the two dots in the middle; the dots on the far left and far right are obscured by the barriers.  Remember that avatars can only ever see dots in the direction that they are facing.	3	How many dots can the avatar on the right see?  Press 1 or 2.	3	example-m.jpg	0	0	0	0	0	0	0	0	0	0	0	0	0	0	0	0	0	0
4.0.8.0	092817	10:33:30	999	1	1	3PP3PPTaskInstructions.M	4	instruct1.M	57	1	3353	4	Let's get some more practice taking perspectives in this 3D environment.    In the next few slides, we will present you with just one avatar within the 3D environment. All you need to do is indicate how many dots that avatar can see by pressing the 1 or 2 key on your keyboard.	4	Please press space bar to continue.	4	blankav.png	0	0	0	0	0	0	0	0	0	0	0	0	0	0	0	0	0	0
4.0.8.0	092817	10:33:30	999	1	1	3PP3PPTaskInstructions.M	5	instruct1.M	57	1	1101	5	Remember: Even though you personally can see all the dots, the avatars can see dots on only one side of any given barrier--including the barrier on their own side.	5	Please press space bar to continue.	5	blankav.png	0	0	0	0	0	0	0	0	0	0	0	0	0	0	0	0	0	0
4.0.8.0	092817	10:33:30	999	1	1	3PP3PPTaskInstructions.M	6	introtask.HS.M	2	1	660	1	+   +	1	+   +	1	+ +	1	+ +	1	+	2	2357.jpg	2	blankav.png	2	lfrgreen-m.png	0	0	0	0	0	0	0	0
4.0.8.0	092817	10:33:30	999	1	1	3PP3PPTaskInstructions.M	7	introtask.LS.M	2	1	559	1	+   +	1	+   +	1	+ +	1	+ +	1	+	8	3578.jpg	8	blankav.png	8	lfrblue-m.png	0	0	0	0	0	0	0	0
4.0.8.0	092817	10:33:30	999	1	1	3PP3PPTaskInstructions.M	8	introtask.HS.M	2	0	351	1	+   +	1	+   +	1	+ +	1	+ +	1	+	4	2457.jpg	4	blankav.png	4	lfrgreen-m.png	1	Incorrect:   Remember that avatars can see only dots in the area they are facing; they see only one side of their nearest barrier.  Pay close attention to the direction the avatar is facing.	0	0	0	0	0	0
4.0.8.0	092817	10:33:30	999	1	1	3PP3PPTaskInstructions.M	9	introtask.HS.M	3	1	342	1	+   +	1	+   +	1	+ +	1	+ +	1	+	6	3567.jpg	6	blankav.png	6	lfrgreen-m.png	0	0	0	0	0	0	0	0
4.0.8.0	092817	10:33:30	999	1	1	3PP3PPTaskInstructions.M	10	introtask.HS.M	2	1	430	1	+   +	1	+   +	1	+ +	1	+ +	1	+	10	3589.jpg	10	blankav.png	10	lfrgreen-m.png	0	0	0	0	0	0	0	0
4.0.8.0	092817	10:33:30	999	1	1	3PP3PPTaskInstructions.M	11	introtask.LS.M	3	1	445	1	+   +	1	+   +	1	+ +	1	+ +	1	+	4	2457.jpg	4	blankav.png	4	lfrblue-m.png	0	0	0	0	0	0	0	0
4.0.8.0	092817	10:33:30	999	1	1	3PP3PPTaskInstructions.M	12	introtask.HS.M	2	1	378	1	+   +	1	+   +	1	+ +	1	+ +	1	+	3	2358.jpg	3	rflgreen-m.png	3	blankav.png	0	0	0	0	0	0	0	0
4.0.8.0	092817	10:33:30	999	1	1	3PP3PPTaskInstructions.M	13	introtask.LS.M	3	1	508	1	+   +	1	+   +	1	+ +	1	+ +	1	+	6	3567.jpg	6	blankav.png	6	lfrblue-m.png	0	0	0	0	0	0	0	0
4.0.8.0	092817	10:33:30	999	1	1	3PP3PPTaskInstructions.M	14	introtask.LS.M	3	1	426	1	+   +	1	+   +	1	+ +	1	+ +	1	+	5	3457.jpg	5	rflblue-m.png	5	blankav.png	0	0	0	0	0	0	0	0
4.0.8.0	092817	10:33:30	999	1	1	3PP3PPTaskInstructions.M	15	introtask.HS.M	2	1	436	1	+   +	1	+   +	1	+ +	1	+ +	1	+	1	1357.jpg	1	rflgreen-m.png	1	blankav.png	0	0	0	0	0	0	0	0
4.0.8.0	092817	10:33:30	999	1	1	3PP3PPTaskInstructions.M	16	introtask.LS.M	2	1	410	1	+   +	1	+   +	1	+ +	1	+ +	1	+	2	2357.jpg	2	blankav.png	2	lfrblue-m.png	0	0	0	0	0	0	0	0
4.0.8.0	092817	10:33:30	999	1	1	3PP3PPTaskInstructions.M	17	introtask.HS.M	3	1	390	1	+   +	1	+   +	1	+ +	1	+ +	1	+	7	3568.jpg	7	rflgreen-m.png	7	blankav.png	0	0	0	0	0	0	0	0
4.0.8.0	092817	10:33:30	999	1	1	3PP3PPTaskInstructions.M	18	introtask.LS.M	2	1	463	1	+   +	1	+   +	1	+ +	1	+ +	1	+	10	3589.jpg	10	blankav.png	10	lfrblue-m.png	0	0	0	0	0	0	0	0
4.0.8.0	092817	10:33:30	999	1	1	3PP3PPTaskInstructions.M	19	introtask.HS.M	2	1	419	1	+   +	1	+   +	1	+ +	1	+ +	1	+	9	3579.jpg	9	rflgreen-m.png	9	blankav.png	0	0	0	0	0	0	0	0
4.0.8.0	092817	10:33:30	999	1	1	3PP3PPTaskInstructions.M	20	introtask.LS.M	2	0	427	1	+   +	1	+   +	1	+ +	1	+ +	1	+	7	3568.jpg	7	rflblue-m.png	7	blankav.png	1	Incorrect:   Remember that avatars can see only dots in the area they are facing; they see only one side of their nearest barrier.  Pay close attention to the direction the avatar is facing.	0	0	0	0	0	0
4.0.8.0	092817	10:33:30	999	1	1	3PP3PPTaskInstructions.M	21	introtask.LS.M	2	1	392	1	+   +	1	+   +	1	+ +	1	+ +	1	+	9	3579.jpg	9	rflblue-m.png	9	blankav.png	0	0	0	0	0	0	0	0
4.0.8.0	092817	10:33:30	999	1	1	3PP3PPTaskInstructions.M	22	introtask.HS.M	3	1	311	1	+   +	1	+   +	1	+ +	1	+ +	1	+	5	3457.jpg	5	rflgreen-m.png	5	blankav.png	0	0	0	0	0	0	0	0
4.0.8.0	092817	10:33:30	999	1	1	3PP3PPTaskInstructions.M	23	introtask.LS.M	2	1	377	1	+   +	1	+   +	1	+ +	1	+ +	1	+	3	2358.jpg	3	rflblue-m.png	3	blankav.png	0	0	0	0	0	0	0	0
4.0.8.0	092817	10:33:30	999	1	1	3PP3PPTaskInstructions.M	24	introtask.LS.M	2	1	360	1	+   +	1	+   +	1	+ +	1	+ +	1	+	1	1357.jpg	1	rflblue-m.png	1	blankav.png	0	0	0	0	0	0	0	0
4.0.8.0	092817	10:33:30	999	1	1	3PP3PPTaskInstructions.M	25	introtask.HS.M	3	0	387	1	+   +	1	+   +	1	+ +	1	+ +	1	+	8	3578.jpg	8	blankav.png	8	lfrgreen-m.png	1	Incorrect:   Remember that avatars can see only dots in the area they are facing; they see only one side of their nearest barrier.  Pay close attention to the direction the avatar is facing.	0	0	0	0	0	0
4.0.8.0	092817	10:33:30	999	1	1	3PP3PPTaskInstructions.M	26	instruct2	57	1	4908	1	Now that you're familiar with the 3D environment, let's continue to a slightly more difficult task.    Before viewing the 3D environment on each trial, you will see a brief prompt. The prompt will indicate which target's perspective you will be taking in that trial.    Your task is to determine how many dots the prompted avatar can see.	1	Please press space bar to continue.	0	0	0	0	0	0	0	0	0	0	0	0	0	0	0	0	0	0	0	0
4.0.8.0	092817	10:33:30	999	1	1	3PP3PPTaskInstructions.M	27	instruct2	57	1	3059	2	TRIAL EXAMPLE:    The prompt says you should take James's (Accountant, blue avatar) perspective. In the 3D space that follows, James's avatar sees exactly two dots. In this case, you would respond by pressing the 2 key.    If the prompted perspective sees just one dot, then you would press the 1 key instead.	2	Please press space bar to continue.	0	0	0	0	0	0	0	0	0	0	0	0	0	0	0	0	0	0	0	0
4.0.8.0	092817	10:33:30	999	1	1	3PP3PPTaskInstructions.M	28	instruct2	57	1	530	3	KEYBOARD USE:    If the prompted avatar sees one dot, press the 1 key.  If the prompted avatar sees two dots, press the 2 key.	3	Please press space bar to continue.	0	0	0	0	0	0	0	0	0	0	0	0	0	0	0	0	0	0	0	0
4.0.8.0	092817	10:33:30	999	1	1	3PP3PPTaskInstructions.M	29	instruct2	2	0	1964	4	FINGER PLACEMENT:     Because the 1 and the 2 keys are so close, we ask that you use your right hand only. Please place your right pointer finger over the 1 key and your right middle finger over the 2 key.    You may find it easier to use the 1 and 2 keys on your keyboard's number pad, if available.	4	Please press the 1 key to continue.	0	0	0	0	0	0	0	0	0	0	0	0	0	0	0	0	0	0	0	0
4.0.8.0	092817	10:33:30	999	1	1	3PP3PPTaskInstructions.M	30	instruct2	3	0	1112	5	For the following practice trials, we encourage you complete the trials as quickly and accurately as possible.	5	Please press the 2 key when you are ready to begin.	0	0	0	0	0	0	0	0	0	0	0	0	0	0	0	0	0	0	0	0
4.0.8.0	092817	10:33:30	999	1	2	3PP3PPTaskPractice.M	1	ILS1.outward.M	Ctrl+'Q'	1	0	1	blank	1	James	1	James	1	+   +	1	+   +	1	+ +	1	+ +	1	+	2	3579.jpg	2	lflblue-m.png	2	rfrgreen-m.png	1	blank
